rt,response,accuracy,trial_type,trial_index,time_elapsed,internal_node_id,run_id,condition,recorded_at,source_code_version,device,referer,mobile,success,stimulus,task,correct_response,correct,value,randomization,block_number,word_used,label,right_concept,right_P,right_Q
132530.0,,[],survey,0,132563,0.0-0.0,14,1,2024-03-26 11:54:44,8dc0f95afc5e1bb424f9b02304a59b81,WebKit,,,,,,,,,,,,,,,
,,,browser-check,1,132564,0.0-1.0,14,1,2024-03-26 11:54:44,8dc0f95afc5e1bb424f9b02304a59b81,WebKit,,False,,,,,,,,,,,,,
3918.0,,,fullscreen,2,137484,0.0-2.0,14,1,2024-03-26 11:54:44,8dc0f95afc5e1bb424f9b02304a59b81,WebKit,,,True,,,,,,,,,,,,
47190.0,p,,html-keyboard-response,3,184675,0.0-3.0,14,1,2024-03-26 11:54:44,8dc0f95afc5e1bb424f9b02304a59b81,WebKit,,,,"<h3>Task 1 of 5</h3><p>Your next task is to help another participant learn the meaning of two concepts that will be associated with <em>p</em> and <em>q</em>. The meaning of such concepts will be made clear to you. You will in fact see a description of each concept on top of the screen.</p><p>During the experiment, you will be shown three objects. The same three objects will be shown to another participant, who, unlike you, will need to learn the meaning of the words associated with <em>p</em> and <em>q</em>. One of the three objects will be underlined for you, but not for the other participant. You need to communicate either <em>p</em> or <em>q</em> to the other participant. Your goal is to make sure that that participant picks the underlined objects among the three displayed ones.</p><p>Being unaware of the meaning of <em>p</em> and <em>q</em>, the other participant will likely not be able to pick the right object in the first trials. However, both of you will be shown many sets containing three objects. In time, the other participant can thus learn the meaning of the words associated with <em>p</em> and <em>q</em> and become more accurate in returning the object which you wanted to be returned (the one underlined for you).</p><p>During the whole task, please take your time and send the message that you think is best to send in each situation. On the right part of the screen, you will see the record of trials you completed.</p><p>We suggest to keep a finger of the right hand on the <em>p</em> key and a finger of the left hand on the <em>q</em> key (ideally the index fingers).</p>",,,,,,,,,,,
13477.0,q,,canvas-keyboard-response,4,198157,0.0-4.0-0.0,14,1,2024-03-26 11:54:44,8dc0f95afc5e1bb424f9b02304a59b81,WebKit,,,,,speaker,p,False,,,,,,,,
16257.0,q,,canvas-keyboard-response,5,214417,0.0-4.1-0.1,14,1,2024-03-26 11:54:44,8dc0f95afc5e1bb424f9b02304a59b81,WebKit,,,,,speaker,p,False,,,,,,,,
6721.0,p,,canvas-keyboard-response,6,221138,0.0-4.2-0.2,14,1,2024-03-26 11:54:44,8dc0f95afc5e1bb424f9b02304a59b81,WebKit,,,,,speaker,q,False,,,,,,,,
7448.0,p,,canvas-keyboard-response,7,228588,0.0-4.3-0.3,14,1,2024-03-26 11:54:44,8dc0f95afc5e1bb424f9b02304a59b81,WebKit,,,,,speaker,p,True,,,,,,,,
5234.0,q,,canvas-keyboard-response,8,233822,0.0-4.4-0.4,14,1,2024-03-26 11:54:44,8dc0f95afc5e1bb424f9b02304a59b81,WebKit,,,,,speaker,q,True,,,,,,,,
1346.0,q,,canvas-keyboard-response,9,235169,0.0-4.5-0.5,14,1,2024-03-26 11:54:44,8dc0f95afc5e1bb424f9b02304a59b81,WebKit,,,,,speaker,q,True,,,,,,,,
1978.0,q,,canvas-keyboard-response,10,237148,0.0-4.6-0.6,14,1,2024-03-26 11:54:44,8dc0f95afc5e1bb424f9b02304a59b81,WebKit,,,,,speaker,q,True,,,,,,,,
1358.0,q,,canvas-keyboard-response,11,238507,0.0-4.7-0.7,14,1,2024-03-26 11:54:44,8dc0f95afc5e1bb424f9b02304a59b81,WebKit,,,,,speaker,q,True,,,,,,,,
1176.0,p,,canvas-keyboard-response,12,239685,0.0-4.8-0.8,14,1,2024-03-26 11:54:44,8dc0f95afc5e1bb424f9b02304a59b81,WebKit,,,,,speaker,p,True,,,,,,,,
1690.0,q,,canvas-keyboard-response,13,241375,0.0-4.9-0.9,14,1,2024-03-26 11:54:44,8dc0f95afc5e1bb424f9b02304a59b81,WebKit,,,,,speaker,q,True,,,,,,,,
2127.0,p,,canvas-keyboard-response,14,243503,0.0-4.10-0.10,14,1,2024-03-26 11:54:44,8dc0f95afc5e1bb424f9b02304a59b81,WebKit,,,,,speaker,p,True,,,,,,,,
1555.0,p,,canvas-keyboard-response,15,245059,0.0-4.11-0.11,14,1,2024-03-26 11:54:44,8dc0f95afc5e1bb424f9b02304a59b81,WebKit,,,,,speaker,p,True,,,,,,,,
2063.0,q,,canvas-keyboard-response,16,247123,0.0-4.12-0.12,14,1,2024-03-26 11:54:44,8dc0f95afc5e1bb424f9b02304a59b81,WebKit,,,,,speaker,q,True,,,,,,,,
922.0,q,,canvas-keyboard-response,17,248046,0.0-4.13-0.13,14,1,2024-03-26 11:54:44,8dc0f95afc5e1bb424f9b02304a59b81,WebKit,,,,,speaker,q,True,,,,,,,,
1190.0,p,,canvas-keyboard-response,18,249237,0.0-4.14-0.14,14,1,2024-03-26 11:54:44,8dc0f95afc5e1bb424f9b02304a59b81,WebKit,,,,,speaker,p,True,,,,,,,,
2518.0,q,,canvas-keyboard-response,19,251756,0.0-4.15-0.15,14,1,2024-03-26 11:54:44,8dc0f95afc5e1bb424f9b02304a59b81,WebKit,,,,,speaker,q,True,,,,,,,,
1050.0,q,,canvas-keyboard-response,20,252806,0.0-4.16-0.16,14,1,2024-03-26 11:54:44,8dc0f95afc5e1bb424f9b02304a59b81,WebKit,,,,,speaker,q,True,,,,,,,,
1059.0,p,,canvas-keyboard-response,21,253866,0.0-4.17-0.17,14,1,2024-03-26 11:54:44,8dc0f95afc5e1bb424f9b02304a59b81,WebKit,,,,,speaker,p,True,,,,,,,,
1207.0,p,,canvas-keyboard-response,22,255075,0.0-4.18-0.18,14,1,2024-03-26 11:54:44,8dc0f95afc5e1bb424f9b02304a59b81,WebKit,,,,,speaker,p,True,,,,,,,,
1428.0,p,,canvas-keyboard-response,23,256504,0.0-4.19-0.19,14,1,2024-03-26 11:54:44,8dc0f95afc5e1bb424f9b02304a59b81,WebKit,,,,,speaker,p,True,,,,,,,,
613.0,q,,canvas-keyboard-response,24,257119,0.0-4.20-0.20,14,1,2024-03-26 11:54:44,8dc0f95afc5e1bb424f9b02304a59b81,WebKit,,,,,speaker,q,True,,,,,,,,
1021.0,p,,canvas-keyboard-response,25,258141,0.0-4.21-0.21,14,1,2024-03-26 11:54:44,8dc0f95afc5e1bb424f9b02304a59b81,WebKit,,,,,speaker,p,True,,,,,,,,
1735.0, ,,canvas-keyboard-response,26,259880,0.0-5.0,14,1,2024-03-26 11:54:44,8dc0f95afc5e1bb424f9b02304a59b81,WebKit,,,,,,,,,,,,,,,
,,,call-function,27,259880,0.0-6.0-0.0,14,1,2024-03-26 11:54:44,8dc0f95afc5e1bb424f9b02304a59b81,WebKit,,,,,,,,,,,,,,,
59688.0,j,,html-keyboard-response,28,319568,0.0-6.0-1.0,14,1,2024-03-26 11:54:44,8dc0f95afc5e1bb424f9b02304a59b81,WebKit,,,,"<h3>Task 2 of 5</h3><p>In the next task, you will learn the meaning of two concepts, which will be associated with <em>p</em> and <em>q</em>. During the experiment, you will be shown sets of three objects. The same sets of three objects were shown to another participant. That participant was informed about the meaning of the words associated with <em>p</em> and <em>q</em>, unlike you. That participant sent you a message (either <em>p</em> or <em>q</em>) for each set of objects. You will first see all objects associated a message and then all objects associated with the other one. The aim of the participant who sent the messages to you is to have you pick a certain object out of the three displayed ones, for each set of objects. Your task is in fact not only to learn the meaning of the two concepts, but also to select the object that the other participant wanted you to return.</p><p>Of course, in the first couple of trials you will have no idea about the meaning of the concepts in question. That should however change later on. As a help, you will see the record of the trials that you already completed on the right part of the screen. This means that you will see all sets of three objects that were shown to you before, with the one that you were supposed to pick underlined. There is no time limit to complete the task, so please focus on being as accurate as possible in returning the object that the other participant wanted you to return, and look at the right part of the screen for help in solving the task.</p><p> We suggest to keep three fingers on the <em>j</em>, <em>k</em> and <em>l</em> keys, which are the keys that you will need to use to indicate which object you select.</p>",,,,,,,,,,,
17359.0,j,,canvas-keyboard-response,29,336930,0.0-6.0-2.0-0.0-0.0,14,1,2024-03-26 11:54:44,8dc0f95afc5e1bb424f9b02304a59b81,WebKit,,,,,listener_LOT_only,j,True,,"[[0,2,1],""draw_circle"",""draw_triangle"",""draw_square"",[""red"",""blue"",""green""],[20,60,100]]",3.0,Q,,,,
2719.0, ,,html-keyboard-response,30,339651,0.0-6.0-2.0-0.0-1.0,14,1,2024-03-26 11:54:44,8dc0f95afc5e1bb424f9b02304a59b81,WebKit,,,,<p><b>Correct!</b></p>You returned the object that the other participant wanted you to return.</p><p>Press any key to continue</p>,,,,,,,,,,,
5615.0,j,,canvas-keyboard-response,31,345267,0.0-6.0-2.0-0.1-0.1,14,1,2024-03-26 11:54:44,8dc0f95afc5e1bb424f9b02304a59b81,WebKit,,,,,listener_LOT_only,j,True,,"[[0,2,1],""draw_circle"",""draw_triangle"",""draw_square"",[""red"",""blue"",""green""],[20,60,100]]",3.0,Q,,,,
1002.0, ,,html-keyboard-response,32,346270,0.0-6.0-2.0-0.1-1.1,14,1,2024-03-26 11:54:44,8dc0f95afc5e1bb424f9b02304a59b81,WebKit,,,,<p><b>Correct!</b></p>You returned the object that the other participant wanted you to return.</p><p>Press any key to continue</p>,,,,,,,,,,,
6228.0,k,,canvas-keyboard-response,33,352499,0.0-6.0-2.0-0.2-0.2,14,1,2024-03-26 11:54:44,8dc0f95afc5e1bb424f9b02304a59b81,WebKit,,,,,listener_LOT_only,k,True,,"[[0,2,1],""draw_circle"",""draw_triangle"",""draw_square"",[""red"",""blue"",""green""],[20,60,100]]",3.0,Q,cer,,,
1065.0, ,,html-keyboard-response,34,353565,0.0-6.0-2.0-0.2-1.2,14,1,2024-03-26 11:54:44,8dc0f95afc5e1bb424f9b02304a59b81,WebKit,,,,<p><b>Correct!</b></p>You returned the object that the other participant wanted you to return.</p><p>Press any key to continue</p>,,,,,,,,,,,
5449.0,l,,canvas-keyboard-response,35,359015,0.0-6.0-2.0-0.3-0.3,14,1,2024-03-26 11:54:44,8dc0f95afc5e1bb424f9b02304a59b81,WebKit,,,,,listener_LOT_only,l,True,,"[[0,2,1],""draw_circle"",""draw_triangle"",""draw_square"",[""red"",""blue"",""green""],[20,60,100]]",3.0,Q,,,,
2463.0, ,,html-keyboard-response,36,361479,0.0-6.0-2.0-0.3-1.3,14,1,2024-03-26 11:54:44,8dc0f95afc5e1bb424f9b02304a59b81,WebKit,,,,<p><b>Correct!</b></p>You returned the object that the other participant wanted you to return.</p><p>Press any key to continue</p>,,,,,,,,,,,
3052.0,j,,canvas-keyboard-response,37,364532,0.0-6.0-2.0-0.4-0.4,14,1,2024-03-26 11:54:44,8dc0f95afc5e1bb424f9b02304a59b81,WebKit,,,,,listener_LOT_only,k,False,,"[[0,2,1],""draw_circle"",""draw_triangle"",""draw_square"",[""red"",""blue"",""green""],[20,60,100]]",3.0,Q,,,,
2678.0, ,,html-keyboard-response,38,367211,0.0-6.0-2.0-0.4-1.4,14,1,2024-03-26 11:54:44,8dc0f95afc5e1bb424f9b02304a59b81,WebKit,,,,<p><b>Incorrect.</b></p>You can see the right answer underlined in the record on the right part of the screen.</p><p>Press any key to continue</p>,,,,,,,,,,,
11450.0,l,,canvas-keyboard-response,39,378662,0.0-6.0-2.0-0.5-0.5,14,1,2024-03-26 11:54:44,8dc0f95afc5e1bb424f9b02304a59b81,WebKit,,,,,listener_LOT_only,l,True,,"[[0,2,1],""draw_circle"",""draw_triangle"",""draw_square"",[""red"",""blue"",""green""],[20,60,100]]",3.0,Q,,,,
666.0, ,,html-keyboard-response,40,379329,0.0-6.0-2.0-0.5-1.5,14,1,2024-03-26 11:54:44,8dc0f95afc5e1bb424f9b02304a59b81,WebKit,,,,<p><b>Correct!</b></p>You returned the object that the other participant wanted you to return.</p><p>Press any key to continue</p>,,,,,,,,,,,
4213.0,k,,canvas-keyboard-response,41,383543,0.0-6.0-2.0-0.6-0.6,14,1,2024-03-26 11:54:44,8dc0f95afc5e1bb424f9b02304a59b81,WebKit,,,,,listener_LOT_only,k,True,,"[[0,2,1],""draw_circle"",""draw_triangle"",""draw_square"",[""red"",""blue"",""green""],[20,60,100]]",3.0,Q,cr,,,
613.0, ,,html-keyboard-response,42,384158,0.0-6.0-2.0-0.6-1.6,14,1,2024-03-26 11:54:44,8dc0f95afc5e1bb424f9b02304a59b81,WebKit,,,,<p><b>Correct!</b></p>You returned the object that the other participant wanted you to return.</p><p>Press any key to continue</p>,,,,,,,,,,,
3568.0,k,,canvas-keyboard-response,43,387726,0.0-6.0-2.0-0.7-0.7,14,1,2024-03-26 11:54:44,8dc0f95afc5e1bb424f9b02304a59b81,WebKit,,,,,listener_LOT_only,k,True,,"[[0,2,1],""draw_circle"",""draw_triangle"",""draw_square"",[""red"",""blue"",""green""],[20,60,100]]",3.0,Q,,,,
611.0, ,,html-keyboard-response,44,388338,0.0-6.0-2.0-0.7-1.7,14,1,2024-03-26 11:54:44,8dc0f95afc5e1bb424f9b02304a59b81,WebKit,,,,<p><b>Correct!</b></p>You returned the object that the other participant wanted you to return.</p><p>Press any key to continue</p>,,,,,,,,,,,
2020.0,j,,canvas-keyboard-response,45,390360,0.0-6.0-2.0-0.8-0.8,14,1,2024-03-26 11:54:44,8dc0f95afc5e1bb424f9b02304a59b81,WebKit,,,,,listener_LOT_only,j,True,,"[[0,2,1],""draw_circle"",""draw_triangle"",""draw_square"",[""red"",""blue"",""green""],[20,60,100]]",3.0,Q,cr,,,
556.0, ,,html-keyboard-response,46,390916,0.0-6.0-2.0-0.8-1.8,14,1,2024-03-26 11:54:44,8dc0f95afc5e1bb424f9b02304a59b81,WebKit,,,,<p><b>Correct!</b></p>You returned the object that the other participant wanted you to return.</p><p>Press any key to continue</p>,,,,,,,,,,,
903.0,l,,canvas-keyboard-response,47,391820,0.0-6.0-2.0-0.9-0.9,14,1,2024-03-26 11:54:44,8dc0f95afc5e1bb424f9b02304a59b81,WebKit,,,,,listener_LOT_only,l,True,,"[[0,2,1],""draw_circle"",""draw_triangle"",""draw_square"",[""red"",""blue"",""green""],[20,60,100]]",3.0,Q,cr,,,
498.0, ,,html-keyboard-response,48,392319,0.0-6.0-2.0-0.9-1.9,14,1,2024-03-26 11:54:44,8dc0f95afc5e1bb424f9b02304a59b81,WebKit,,,,<p><b>Correct!</b></p>You returned the object that the other participant wanted you to return.</p><p>Press any key to continue</p>,,,,,,,,,,,
1068.0,l,,canvas-keyboard-response,49,393389,0.0-6.0-2.0-0.10-0.10,14,1,2024-03-26 11:54:44,8dc0f95afc5e1bb424f9b02304a59b81,WebKit,,,,,listener_LOT_only,l,True,,"[[0,2,1],""draw_circle"",""draw_triangle"",""draw_square"",[""red"",""blue"",""green""],[20,60,100]]",3.0,Q,cr,,,
420.0, ,,html-keyboard-response,50,393809,0.0-6.0-2.0-0.10-1.10,14,1,2024-03-26 11:54:44,8dc0f95afc5e1bb424f9b02304a59b81,WebKit,,,,<p><b>Correct!</b></p>You returned the object that the other participant wanted you to return.</p><p>Press any key to continue</p>,,,,,,,,,,,
17962.0, ,,canvas-keyboard-response,51,411774,0.0-6.0-2.0-1.0,14,1,2024-03-26 11:54:44,8dc0f95afc5e1bb424f9b02304a59b81,WebKit,,,,,,,,,,,,,,,
10187.0,"{""Q_meaning_participants"":""Circles but not red objects""}",[],survey,52,421974,0.0-6.0-2.0-2.0,14,1,2024-03-26 11:54:44,8dc0f95afc5e1bb424f9b02304a59b81,WebKit,,,,,,,,,,,,,draw_circle_and_(blue_or_green),,
6567.0,l,,canvas-keyboard-response,53,428542,0.0-6.0-2.0-0.11-0.11,14,1,2024-03-26 11:54:44,8dc0f95afc5e1bb424f9b02304a59b81,WebKit,,,,,listener_LOT_only,l,True,,"[[0,2,1],""draw_circle"",""draw_triangle"",""draw_square"",[""red"",""blue"",""green""],[20,60,100]]",3.0,P,,,,
1258.0, ,,html-keyboard-response,54,429801,0.0-6.0-2.0-0.11-1.11,14,1,2024-03-26 11:54:44,8dc0f95afc5e1bb424f9b02304a59b81,WebKit,,,,<p><b>Correct!</b></p>You returned the object that the other participant wanted you to return.</p><p>Press any key to continue</p>,,,,,,,,,,,
2843.0,k,,canvas-keyboard-response,55,432646,0.0-6.0-2.0-0.12-0.12,14,1,2024-03-26 11:54:44,8dc0f95afc5e1bb424f9b02304a59b81,WebKit,,,,,listener_LOT_only,l,False,,"[[0,2,1],""draw_circle"",""draw_triangle"",""draw_square"",[""red"",""blue"",""green""],[20,60,100]]",3.0,P,,,,
1462.0, ,,html-keyboard-response,56,434108,0.0-6.0-2.0-0.12-1.12,14,1,2024-03-26 11:54:44,8dc0f95afc5e1bb424f9b02304a59b81,WebKit,,,,<p><b>Incorrect.</b></p>You can see the right answer underlined in the record on the right part of the screen.</p><p>Press any key to continue</p>,,,,,,,,,,,
3329.0,k,,canvas-keyboard-response,57,437438,0.0-6.0-2.0-0.13-0.13,14,1,2024-03-26 11:54:44,8dc0f95afc5e1bb424f9b02304a59b81,WebKit,,,,,listener_LOT_only,k,True,,"[[0,2,1],""draw_circle"",""draw_triangle"",""draw_square"",[""red"",""blue"",""green""],[20,60,100]]",3.0,P,,,,
609.0, ,,html-keyboard-response,58,438048,0.0-6.0-2.0-0.13-1.13,14,1,2024-03-26 11:54:44,8dc0f95afc5e1bb424f9b02304a59b81,WebKit,,,,<p><b>Correct!</b></p>You returned the object that the other participant wanted you to return.</p><p>Press any key to continue</p>,,,,,,,,,,,
648.0,j,,canvas-keyboard-response,59,438698,0.0-6.0-2.0-0.14-0.14,14,1,2024-03-26 11:54:44,8dc0f95afc5e1bb424f9b02304a59b81,WebKit,,,,,listener_LOT_only,j,True,,"[[0,2,1],""draw_circle"",""draw_triangle"",""draw_square"",[""red"",""blue"",""green""],[20,60,100]]",3.0,P,,,,
546.0, ,,html-keyboard-response,60,439245,0.0-6.0-2.0-0.14-1.14,14,1,2024-03-26 11:54:44,8dc0f95afc5e1bb424f9b02304a59b81,WebKit,,,,<p><b>Correct!</b></p>You returned the object that the other participant wanted you to return.</p><p>Press any key to continue</p>,,,,,,,,,,,
1218.0,l,,canvas-keyboard-response,61,440465,0.0-6.0-2.0-0.15-0.15,14,1,2024-03-26 11:54:44,8dc0f95afc5e1bb424f9b02304a59b81,WebKit,,,,,listener_LOT_only,l,True,,"[[0,2,1],""draw_circle"",""draw_triangle"",""draw_square"",[""red"",""blue"",""green""],[20,60,100]]",3.0,P,,,,
542.0, ,,html-keyboard-response,62,441008,0.0-6.0-2.0-0.15-1.15,14,1,2024-03-26 11:54:44,8dc0f95afc5e1bb424f9b02304a59b81,WebKit,,,,<p><b>Correct!</b></p>You returned the object that the other participant wanted you to return.</p><p>Press any key to continue</p>,,,,,,,,,,,
1213.0,k,,canvas-keyboard-response,63,442223,0.0-6.0-2.0-0.16-0.16,14,1,2024-03-26 11:54:44,8dc0f95afc5e1bb424f9b02304a59b81,WebKit,,,,,listener_LOT_only,k,True,,"[[0,2,1],""draw_circle"",""draw_triangle"",""draw_square"",[""red"",""blue"",""green""],[20,60,100]]",3.0,P,,,,
609.0, ,,html-keyboard-response,64,442834,0.0-6.0-2.0-0.16-1.16,14,1,2024-03-26 11:54:44,8dc0f95afc5e1bb424f9b02304a59b81,WebKit,,,,<p><b>Correct!</b></p>You returned the object that the other participant wanted you to return.</p><p>Press any key to continue</p>,,,,,,,,,,,
609.0,l,,canvas-keyboard-response,65,443445,0.0-6.0-2.0-0.17-0.17,14,1,2024-03-26 11:54:44,8dc0f95afc5e1bb424f9b02304a59b81,WebKit,,,,,listener_LOT_only,l,True,,"[[0,2,1],""draw_circle"",""draw_triangle"",""draw_square"",[""red"",""blue"",""green""],[20,60,100]]",3.0,P,,,,
501.0, ,,html-keyboard-response,66,443947,0.0-6.0-2.0-0.17-1.17,14,1,2024-03-26 11:54:44,8dc0f95afc5e1bb424f9b02304a59b81,WebKit,,,,<p><b>Correct!</b></p>You returned the object that the other participant wanted you to return.</p><p>Press any key to continue</p>,,,,,,,,,,,
525.0,j,,canvas-keyboard-response,67,444473,0.0-6.0-2.0-0.18-0.18,14,1,2024-03-26 11:54:44,8dc0f95afc5e1bb424f9b02304a59b81,WebKit,,,,,listener_LOT_only,j,True,,"[[0,2,1],""draw_circle"",""draw_triangle"",""draw_square"",[""red"",""blue"",""green""],[20,60,100]]",3.0,P,,,,
526.0, ,,html-keyboard-response,68,445001,0.0-6.0-2.0-0.18-1.18,14,1,2024-03-26 11:54:44,8dc0f95afc5e1bb424f9b02304a59b81,WebKit,,,,<p><b>Correct!</b></p>You returned the object that the other participant wanted you to return.</p><p>Press any key to continue</p>,,,,,,,,,,,
577.0,k,,canvas-keyboard-response,69,445579,0.0-6.0-2.0-0.19-0.19,14,1,2024-03-26 11:54:44,8dc0f95afc5e1bb424f9b02304a59b81,WebKit,,,,,listener_LOT_only,j,False,,"[[0,2,1],""draw_circle"",""draw_triangle"",""draw_square"",[""red"",""blue"",""green""],[20,60,100]]",3.0,P,,,,
1333.0, ,,html-keyboard-response,70,446913,0.0-6.0-2.0-0.19-1.19,14,1,2024-03-26 11:54:44,8dc0f95afc5e1bb424f9b02304a59b81,WebKit,,,,<p><b>Incorrect.</b></p>You can see the right answer underlined in the record on the right part of the screen.</p><p>Press any key to continue</p>,,,,,,,,,,,
3818.0,l,,canvas-keyboard-response,71,450732,0.0-6.0-2.0-0.20-0.20,14,1,2024-03-26 11:54:44,8dc0f95afc5e1bb424f9b02304a59b81,WebKit,,,,,listener_LOT_only,l,True,,"[[0,2,1],""draw_circle"",""draw_triangle"",""draw_square"",[""red"",""blue"",""green""],[20,60,100]]",3.0,P,,,,
498.0, ,,html-keyboard-response,72,451231,0.0-6.0-2.0-0.20-1.20,14,1,2024-03-26 11:54:44,8dc0f95afc5e1bb424f9b02304a59b81,WebKit,,,,<p><b>Correct!</b></p>You returned the object that the other participant wanted you to return.</p><p>Press any key to continue</p>,,,,,,,,,,,
8361.0,k,,canvas-keyboard-response,73,459594,0.0-6.0-2.0-0.21-0.21,14,1,2024-03-26 11:54:44,8dc0f95afc5e1bb424f9b02304a59b81,WebKit,,,,,listener_LOT_only,l,False,,"[[0,2,1],""draw_circle"",""draw_triangle"",""draw_square"",[""red"",""blue"",""green""],[20,60,100]]",3.0,P,,,,
1120.0, ,,html-keyboard-response,74,460715,0.0-6.0-2.0-0.21-1.21,14,1,2024-03-26 11:54:44,8dc0f95afc5e1bb424f9b02304a59b81,WebKit,,,,<p><b>Incorrect.</b></p>You can see the right answer underlined in the record on the right part of the screen.</p><p>Press any key to continue</p>,,,,,,,,,,,
46500.0, ,,canvas-keyboard-response,75,507216,0.0-6.0-2.0-1.1,14,1,2024-03-26 11:54:44,8dc0f95afc5e1bb424f9b02304a59b81,WebKit,,,,,,,,,,,,,,,
14200.0,"{""P_meaning_participants"":""Big objects but not triangles and preferably green""}",[],survey,76,521429,0.0-6.0-2.0-2.1,14,1,2024-03-26 11:54:44,8dc0f95afc5e1bb424f9b02304a59b81,WebKit,,,,,,,,,,,,,not_20,,
,,,call-function,77,521432,0.0-6.0-0.1,14,1,2024-03-26 11:54:44,8dc0f95afc5e1bb424f9b02304a59b81,WebKit,,,,,,,,,,,,,,,
20301.0,j,,html-keyboard-response,78,541734,0.0-6.0-1.1,14,1,2024-03-26 11:54:44,8dc0f95afc5e1bb424f9b02304a59b81,WebKit,,,,"<h3>Task 3 of 5</h3><p>In the next task, you will learn the meaning of two concepts, which will be associated with <em>p</em> and <em>q</em>. During the experiment, you will be shown sets of three objects. The same sets of three objects were shown to another participant. That participant was informed about the meaning of the words associated with <em>p</em> and <em>q</em>, unlike you. That participant sent you a message (either <em>p</em> or <em>q</em>) for each set of objects. You will first see all objects associated a message and then all objects associated with the other one. The aim of the participant who sent the messages to you is to have you pick a certain object out of the three displayed ones, for each set of objects. Your task is in fact not only to learn the meaning of the two concepts, but also to select the object that the other participant wanted you to return.</p><p>Of course, in the first couple of trials you will have no idea about the meaning of the concepts in question. That should however change later on. As a help, you will see the record of the trials that you already completed on the right part of the screen. This means that you will see all sets of three objects that were shown to you before, with the one that you were supposed to pick underlined. There is no time limit to complete the task, so please focus on being as accurate as possible in returning the object that the other participant wanted you to return, and look at the right part of the screen for help in solving the task.</p><p> We suggest to keep three fingers on the <em>j</em>, <em>k</em> and <em>l</em> keys, which are the keys that you will need to use to indicate which object you select.</p>",,,,,,,,,,,
3386.0,l,,canvas-keyboard-response,79,545122,0.0-6.0-2.1-0.22-0.22,14,1,2024-03-26 11:54:44,8dc0f95afc5e1bb424f9b02304a59b81,WebKit,,,,,listener_LOT_only,l,True,,"[[1,2,0],""draw_triangle"",""draw_circle"",""draw_square"",[""green"",""blue"",""red""],[100,60,20]]",4.0,P,,,,
1460.0, ,,html-keyboard-response,80,546583,0.0-6.0-2.1-0.22-1.22,14,1,2024-03-26 11:54:44,8dc0f95afc5e1bb424f9b02304a59b81,WebKit,,,,<p><b>Correct!</b></p>You returned the object that the other participant wanted you to return.</p><p>Press any key to continue</p>,,,,,,,,,,,
3587.0,j,,canvas-keyboard-response,81,550171,0.0-6.0-2.1-0.23-0.23,14,1,2024-03-26 11:54:44,8dc0f95afc5e1bb424f9b02304a59b81,WebKit,,,,,listener_LOT_only,j,True,,"[[1,2,0],""draw_triangle"",""draw_circle"",""draw_square"",[""green"",""blue"",""red""],[100,60,20]]",4.0,P,,,,
908.0, ,,html-keyboard-response,82,551080,0.0-6.0-2.1-0.23-1.23,14,1,2024-03-26 11:54:44,8dc0f95afc5e1bb424f9b02304a59b81,WebKit,,,,<p><b>Correct!</b></p>You returned the object that the other participant wanted you to return.</p><p>Press any key to continue</p>,,,,,,,,,,,
895.0,j,,canvas-keyboard-response,83,551977,0.0-6.0-2.1-0.24-0.24,14,1,2024-03-26 11:54:44,8dc0f95afc5e1bb424f9b02304a59b81,WebKit,,,,,listener_LOT_only,j,True,,"[[1,2,0],""draw_triangle"",""draw_circle"",""draw_square"",[""green"",""blue"",""red""],[100,60,20]]",4.0,P,,,,
547.0, ,,html-keyboard-response,84,552525,0.0-6.0-2.1-0.24-1.24,14,1,2024-03-26 11:54:44,8dc0f95afc5e1bb424f9b02304a59b81,WebKit,,,,<p><b>Correct!</b></p>You returned the object that the other participant wanted you to return.</p><p>Press any key to continue</p>,,,,,,,,,,,
1927.0,k,,canvas-keyboard-response,85,554454,0.0-6.0-2.1-0.25-0.25,14,1,2024-03-26 11:54:44,8dc0f95afc5e1bb424f9b02304a59b81,WebKit,,,,,listener_LOT_only,k,True,,"[[1,2,0],""draw_triangle"",""draw_circle"",""draw_square"",[""green"",""blue"",""red""],[100,60,20]]",4.0,P,cr,,,
1194.0, ,,html-keyboard-response,86,555650,0.0-6.0-2.1-0.25-1.25,14,1,2024-03-26 11:54:44,8dc0f95afc5e1bb424f9b02304a59b81,WebKit,,,,<p><b>Correct!</b></p>You returned the object that the other participant wanted you to return.</p><p>Press any key to continue</p>,,,,,,,,,,,
899.0,l,,canvas-keyboard-response,87,556551,0.0-6.0-2.1-0.26-0.26,14,1,2024-03-26 11:54:44,8dc0f95afc5e1bb424f9b02304a59b81,WebKit,,,,,listener_LOT_only,l,True,,"[[1,2,0],""draw_triangle"",""draw_circle"",""draw_square"",[""green"",""blue"",""red""],[100,60,20]]",4.0,P,cr,,,
625.0, ,,html-keyboard-response,88,557178,0.0-6.0-2.1-0.26-1.26,14,1,2024-03-26 11:54:44,8dc0f95afc5e1bb424f9b02304a59b81,WebKit,,,,<p><b>Correct!</b></p>You returned the object that the other participant wanted you to return.</p><p>Press any key to continue</p>,,,,,,,,,,,
555.0,l,,canvas-keyboard-response,89,557735,0.0-6.0-2.1-0.27-0.27,14,1,2024-03-26 11:54:44,8dc0f95afc5e1bb424f9b02304a59b81,WebKit,,,,,listener_LOT_only,l,True,,"[[1,2,0],""draw_triangle"",""draw_circle"",""draw_square"",[""green"",""blue"",""red""],[100,60,20]]",4.0,P,cr,,,
495.0, ,,html-keyboard-response,90,558231,0.0-6.0-2.1-0.27-1.27,14,1,2024-03-26 11:54:44,8dc0f95afc5e1bb424f9b02304a59b81,WebKit,,,,<p><b>Correct!</b></p>You returned the object that the other participant wanted you to return.</p><p>Press any key to continue</p>,,,,,,,,,,,
569.0,k,,canvas-keyboard-response,91,558802,0.0-6.0-2.1-0.28-0.28,14,1,2024-03-26 11:54:44,8dc0f95afc5e1bb424f9b02304a59b81,WebKit,,,,,listener_LOT_only,k,True,,"[[1,2,0],""draw_triangle"",""draw_circle"",""draw_square"",[""green"",""blue"",""red""],[100,60,20]]",4.0,P,cr,,,
557.0, ,,html-keyboard-response,92,559360,0.0-6.0-2.1-0.28-1.28,14,1,2024-03-26 11:54:44,8dc0f95afc5e1bb424f9b02304a59b81,WebKit,,,,<p><b>Correct!</b></p>You returned the object that the other participant wanted you to return.</p><p>Press any key to continue</p>,,,,,,,,,,,
618.0,l,,canvas-keyboard-response,93,559980,0.0-6.0-2.1-0.29-0.29,14,1,2024-03-26 11:54:44,8dc0f95afc5e1bb424f9b02304a59b81,WebKit,,,,,listener_LOT_only,l,True,,"[[1,2,0],""draw_triangle"",""draw_circle"",""draw_square"",[""green"",""blue"",""red""],[100,60,20]]",4.0,P,cr,,,
571.0, ,,html-keyboard-response,94,560552,0.0-6.0-2.1-0.29-1.29,14,1,2024-03-26 11:54:44,8dc0f95afc5e1bb424f9b02304a59b81,WebKit,,,,<p><b>Correct!</b></p>You returned the object that the other participant wanted you to return.</p><p>Press any key to continue</p>,,,,,,,,,,,
634.0,j,,canvas-keyboard-response,95,561188,0.0-6.0-2.1-0.30-0.30,14,1,2024-03-26 11:54:44,8dc0f95afc5e1bb424f9b02304a59b81,WebKit,,,,,listener_LOT_only,j,True,,"[[1,2,0],""draw_triangle"",""draw_circle"",""draw_square"",[""green"",""blue"",""red""],[100,60,20]]",4.0,P,cr,,,
560.0, ,,html-keyboard-response,96,561750,0.0-6.0-2.1-0.30-1.30,14,1,2024-03-26 11:54:44,8dc0f95afc5e1bb424f9b02304a59b81,WebKit,,,,<p><b>Correct!</b></p>You returned the object that the other participant wanted you to return.</p><p>Press any key to continue</p>,,,,,,,,,,,
578.0,k,,canvas-keyboard-response,97,562330,0.0-6.0-2.1-0.31-0.31,14,1,2024-03-26 11:54:44,8dc0f95afc5e1bb424f9b02304a59b81,WebKit,,,,,listener_LOT_only,k,True,,"[[1,2,0],""draw_triangle"",""draw_circle"",""draw_square"",[""green"",""blue"",""red""],[100,60,20]]",4.0,P,cer,,,
621.0, ,,html-keyboard-response,98,562952,0.0-6.0-2.1-0.31-1.31,14,1,2024-03-26 11:54:44,8dc0f95afc5e1bb424f9b02304a59b81,WebKit,,,,<p><b>Correct!</b></p>You returned the object that the other participant wanted you to return.</p><p>Press any key to continue</p>,,,,,,,,,,,
399.0,l,,canvas-keyboard-response,99,563352,0.0-6.0-2.1-0.32-0.32,14,1,2024-03-26 11:54:44,8dc0f95afc5e1bb424f9b02304a59b81,WebKit,,,,,listener_LOT_only,l,True,,"[[1,2,0],""draw_triangle"",""draw_circle"",""draw_square"",[""green"",""blue"",""red""],[100,60,20]]",4.0,P,cr,,,
485.0, ,,html-keyboard-response,100,563839,0.0-6.0-2.1-0.32-1.32,14,1,2024-03-26 11:54:44,8dc0f95afc5e1bb424f9b02304a59b81,WebKit,,,,<p><b>Correct!</b></p>You returned the object that the other participant wanted you to return.</p><p>Press any key to continue</p>,,,,,,,,,,,
1638.0, ,,canvas-keyboard-response,101,565479,0.0-6.0-2.1-1.2,14,1,2024-03-26 11:54:44,8dc0f95afc5e1bb424f9b02304a59b81,WebKit,,,,,,,,,,,,,,,
4366.0,"{""P_meaning_participants"":""Big green objects""}",[],survey,102,569858,0.0-6.0-2.1-2.2,14,1,2024-03-26 11:54:44,8dc0f95afc5e1bb424f9b02304a59b81,WebKit,,,,,,,,,,,,,100_and_draw_triangle,,
2703.0,l,,canvas-keyboard-response,103,572564,0.0-6.0-2.1-0.33-0.33,14,1,2024-03-26 11:54:44,8dc0f95afc5e1bb424f9b02304a59b81,WebKit,,,,,listener_LOT_only,j,False,,"[[1,2,0],""draw_triangle"",""draw_circle"",""draw_square"",[""green"",""blue"",""red""],[100,60,20]]",4.0,Q,,,,
1209.0, ,,html-keyboard-response,104,573775,0.0-6.0-2.1-0.33-1.33,14,1,2024-03-26 11:54:44,8dc0f95afc5e1bb424f9b02304a59b81,WebKit,,,,<p><b>Incorrect.</b></p>You can see the right answer underlined in the record on the right part of the screen.</p><p>Press any key to continue</p>,,,,,,,,,,,
1432.0,j,,canvas-keyboard-response,105,575208,0.0-6.0-2.1-0.34-0.34,14,1,2024-03-26 11:54:44,8dc0f95afc5e1bb424f9b02304a59b81,WebKit,,,,,listener_LOT_only,j,True,,"[[1,2,0],""draw_triangle"",""draw_circle"",""draw_square"",[""green"",""blue"",""red""],[100,60,20]]",4.0,Q,,,,
710.0, ,,html-keyboard-response,106,575919,0.0-6.0-2.1-0.34-1.34,14,1,2024-03-26 11:54:44,8dc0f95afc5e1bb424f9b02304a59b81,WebKit,,,,<p><b>Correct!</b></p>You returned the object that the other participant wanted you to return.</p><p>Press any key to continue</p>,,,,,,,,,,,
675.0,k,,canvas-keyboard-response,107,576596,0.0-6.0-2.1-0.35-0.35,14,1,2024-03-26 11:54:44,8dc0f95afc5e1bb424f9b02304a59b81,WebKit,,,,,listener_LOT_only,k,True,,"[[1,2,0],""draw_triangle"",""draw_circle"",""draw_square"",[""green"",""blue"",""red""],[100,60,20]]",4.0,Q,cer,,,
504.0, ,,html-keyboard-response,108,577101,0.0-6.0-2.1-0.35-1.35,14,1,2024-03-26 11:54:44,8dc0f95afc5e1bb424f9b02304a59b81,WebKit,,,,<p><b>Correct!</b></p>You returned the object that the other participant wanted you to return.</p><p>Press any key to continue</p>,,,,,,,,,,,
6150.0,j,,canvas-keyboard-response,109,583253,0.0-6.0-2.1-0.36-0.36,14,1,2024-03-26 11:54:44,8dc0f95afc5e1bb424f9b02304a59b81,WebKit,,,,,listener_LOT_only,j,True,,"[[1,2,0],""draw_triangle"",""draw_circle"",""draw_square"",[""green"",""blue"",""red""],[100,60,20]]",4.0,Q,,,,
668.0, ,,html-keyboard-response,110,583923,0.0-6.0-2.1-0.36-1.36,14,1,2024-03-26 11:54:44,8dc0f95afc5e1bb424f9b02304a59b81,WebKit,,,,<p><b>Correct!</b></p>You returned the object that the other participant wanted you to return.</p><p>Press any key to continue</p>,,,,,,,,,,,
7233.0,l,,canvas-keyboard-response,111,591158,0.0-6.0-2.1-0.37-0.37,14,1,2024-03-26 11:54:44,8dc0f95afc5e1bb424f9b02304a59b81,WebKit,,,,,listener_LOT_only,l,True,,"[[1,2,0],""draw_triangle"",""draw_circle"",""draw_square"",[""green"",""blue"",""red""],[100,60,20]]",4.0,Q,,,,
896.0, ,,html-keyboard-response,112,592055,0.0-6.0-2.1-0.37-1.37,14,1,2024-03-26 11:54:44,8dc0f95afc5e1bb424f9b02304a59b81,WebKit,,,,<p><b>Correct!</b></p>You returned the object that the other participant wanted you to return.</p><p>Press any key to continue</p>,,,,,,,,,,,
4011.0,l,,canvas-keyboard-response,113,596068,0.0-6.0-2.1-0.38-0.38,14,1,2024-03-26 11:54:44,8dc0f95afc5e1bb424f9b02304a59b81,WebKit,,,,,listener_LOT_only,k,False,,"[[1,2,0],""draw_triangle"",""draw_circle"",""draw_square"",[""green"",""blue"",""red""],[100,60,20]]",4.0,Q,,,,
1027.0, ,,html-keyboard-response,114,597097,0.0-6.0-2.1-0.38-1.38,14,1,2024-03-26 11:54:44,8dc0f95afc5e1bb424f9b02304a59b81,WebKit,,,,<p><b>Incorrect.</b></p>You can see the right answer underlined in the record on the right part of the screen.</p><p>Press any key to continue</p>,,,,,,,,,,,
4272.0,k,,canvas-keyboard-response,115,601371,0.0-6.0-2.1-0.39-0.39,14,1,2024-03-26 11:54:44,8dc0f95afc5e1bb424f9b02304a59b81,WebKit,,,,,listener_LOT_only,k,True,,"[[1,2,0],""draw_triangle"",""draw_circle"",""draw_square"",[""green"",""blue"",""red""],[100,60,20]]",4.0,Q,,,,
538.0, ,,html-keyboard-response,116,601911,0.0-6.0-2.1-0.39-1.39,14,1,2024-03-26 11:54:44,8dc0f95afc5e1bb424f9b02304a59b81,WebKit,,,,<p><b>Correct!</b></p>You returned the object that the other participant wanted you to return.</p><p>Press any key to continue</p>,,,,,,,,,,,
1719.0,k,,canvas-keyboard-response,117,603632,0.0-6.0-2.1-0.40-0.40,14,1,2024-03-26 11:54:44,8dc0f95afc5e1bb424f9b02304a59b81,WebKit,,,,,listener_LOT_only,k,True,,"[[1,2,0],""draw_triangle"",""draw_circle"",""draw_square"",[""green"",""blue"",""red""],[100,60,20]]",4.0,Q,,,,
648.0, ,,html-keyboard-response,118,604282,0.0-6.0-2.1-0.40-1.40,14,1,2024-03-26 11:54:44,8dc0f95afc5e1bb424f9b02304a59b81,WebKit,,,,<p><b>Correct!</b></p>You returned the object that the other participant wanted you to return.</p><p>Press any key to continue</p>,,,,,,,,,,,
1193.0,k,,canvas-keyboard-response,119,605477,0.0-6.0-2.1-0.41-0.41,14,1,2024-03-26 11:54:44,8dc0f95afc5e1bb424f9b02304a59b81,WebKit,,,,,listener_LOT_only,k,True,,"[[1,2,0],""draw_triangle"",""draw_circle"",""draw_square"",[""green"",""blue"",""red""],[100,60,20]]",4.0,Q,,,,
397.0, ,,html-keyboard-response,120,605876,0.0-6.0-2.1-0.41-1.41,14,1,2024-03-26 11:54:44,8dc0f95afc5e1bb424f9b02304a59b81,WebKit,,,,<p><b>Correct!</b></p>You returned the object that the other participant wanted you to return.</p><p>Press any key to continue</p>,,,,,,,,,,,
1194.0,j,,canvas-keyboard-response,121,607072,0.0-6.0-2.1-0.42-0.42,14,1,2024-03-26 11:54:44,8dc0f95afc5e1bb424f9b02304a59b81,WebKit,,,,,listener_LOT_only,j,True,,"[[1,2,0],""draw_triangle"",""draw_circle"",""draw_square"",[""green"",""blue"",""red""],[100,60,20]]",4.0,Q,,,,
508.0, ,,html-keyboard-response,122,607582,0.0-6.0-2.1-0.42-1.42,14,1,2024-03-26 11:54:44,8dc0f95afc5e1bb424f9b02304a59b81,WebKit,,,,<p><b>Correct!</b></p>You returned the object that the other participant wanted you to return.</p><p>Press any key to continue</p>,,,,,,,,,,,
743.0,j,,canvas-keyboard-response,123,608326,0.0-6.0-2.1-0.43-0.43,14,1,2024-03-26 11:54:44,8dc0f95afc5e1bb424f9b02304a59b81,WebKit,,,,,listener_LOT_only,j,True,,"[[1,2,0],""draw_triangle"",""draw_circle"",""draw_square"",[""green"",""blue"",""red""],[100,60,20]]",4.0,Q,,,,
543.0, ,,html-keyboard-response,124,608871,0.0-6.0-2.1-0.43-1.43,14,1,2024-03-26 11:54:44,8dc0f95afc5e1bb424f9b02304a59b81,WebKit,,,,<p><b>Correct!</b></p>You returned the object that the other participant wanted you to return.</p><p>Press any key to continue</p>,,,,,,,,,,,
1200.0, ,,canvas-keyboard-response,125,610073,0.0-6.0-2.1-1.3,14,1,2024-03-26 11:54:44,8dc0f95afc5e1bb424f9b02304a59b81,WebKit,,,,,,,,,,,,,,,
5085.0,"{""Q_meaning_participants"":""Small objects or squares""}",[],survey,126,615172,0.0-6.0-2.1-2.3,14,1,2024-03-26 11:54:44,8dc0f95afc5e1bb424f9b02304a59b81,WebKit,,,,,,,,,,,,,red_or_draw_square,,
,,,call-function,127,615175,0.0-6.0-0.2,14,1,2024-03-26 11:54:44,8dc0f95afc5e1bb424f9b02304a59b81,WebKit,,,,,,,,,,,,,,,
1735.0,j,,html-keyboard-response,128,616911,0.0-6.0-1.2,14,1,2024-03-26 11:54:44,8dc0f95afc5e1bb424f9b02304a59b81,WebKit,,,,"<h3>Task 4 of 5</h3><p>In the next task, you will learn the meaning of two concepts, which will be associated with <em>p</em> and <em>q</em>. During the experiment, you will be shown sets of three objects. The same sets of three objects were shown to another participant. That participant was informed about the meaning of the words associated with <em>p</em> and <em>q</em>, unlike you. That participant sent you a message (either <em>p</em> or <em>q</em>) for each set of objects. You will first see all objects associated a message and then all objects associated with the other one. The aim of the participant who sent the messages to you is to have you pick a certain object out of the three displayed ones, for each set of objects. Your task is in fact not only to learn the meaning of the two concepts, but also to select the object that the other participant wanted you to return.</p><p>Of course, in the first couple of trials you will have no idea about the meaning of the concepts in question. That should however change later on. As a help, you will see the record of the trials that you already completed on the right part of the screen. This means that you will see all sets of three objects that were shown to you before, with the one that you were supposed to pick underlined. There is no time limit to complete the task, so please focus on being as accurate as possible in returning the object that the other participant wanted you to return, and look at the right part of the screen for help in solving the task.</p><p> We suggest to keep three fingers on the <em>j</em>, <em>k</em> and <em>l</em> keys, which are the keys that you will need to use to indicate which object you select.</p>",,,,,,,,,,,
3827.0,k,,canvas-keyboard-response,129,620741,0.0-6.0-2.2-0.44-0.44,14,1,2024-03-26 11:54:44,8dc0f95afc5e1bb424f9b02304a59b81,WebKit,,,,,listener_LOT_only,l,False,,"[[1,0,2],""draw_triangle"",""draw_circle"",""draw_square"",[""red"",""blue"",""green""],[20,100,60]]",2.0,P,,,,
778.0, ,,html-keyboard-response,130,621520,0.0-6.0-2.2-0.44-1.44,14,1,2024-03-26 11:54:44,8dc0f95afc5e1bb424f9b02304a59b81,WebKit,,,,<p><b>Incorrect.</b></p>You can see the right answer underlined in the record on the right part of the screen.</p><p>Press any key to continue</p>,,,,,,,,,,,
1812.0,l,,canvas-keyboard-response,131,623335,0.0-6.0-2.2-0.45-0.45,14,1,2024-03-26 11:54:44,8dc0f95afc5e1bb424f9b02304a59b81,WebKit,,,,,listener_LOT_only,l,True,,"[[1,0,2],""draw_triangle"",""draw_circle"",""draw_square"",[""red"",""blue"",""green""],[20,100,60]]",2.0,P,cr,,,
441.0, ,,html-keyboard-response,132,623778,0.0-6.0-2.2-0.45-1.45,14,1,2024-03-26 11:54:44,8dc0f95afc5e1bb424f9b02304a59b81,WebKit,,,,<p><b>Correct!</b></p>You returned the object that the other participant wanted you to return.</p><p>Press any key to continue</p>,,,,,,,,,,,
2185.0,j,,canvas-keyboard-response,133,625965,0.0-6.0-2.2-0.46-0.46,14,1,2024-03-26 11:54:44,8dc0f95afc5e1bb424f9b02304a59b81,WebKit,,,,,listener_LOT_only,j,True,,"[[1,0,2],""draw_triangle"",""draw_circle"",""draw_square"",[""red"",""blue"",""green""],[20,100,60]]",2.0,P,,,,
521.0, ,,html-keyboard-response,134,626488,0.0-6.0-2.2-0.46-1.46,14,1,2024-03-26 11:54:44,8dc0f95afc5e1bb424f9b02304a59b81,WebKit,,,,<p><b>Correct!</b></p>You returned the object that the other participant wanted you to return.</p><p>Press any key to continue</p>,,,,,,,,,,,
2102.0,k,,canvas-keyboard-response,135,628593,0.0-6.0-2.2-0.47-0.47,14,1,2024-03-26 11:54:44,8dc0f95afc5e1bb424f9b02304a59b81,WebKit,,,,,listener_LOT_only,l,False,,"[[1,0,2],""draw_triangle"",""draw_circle"",""draw_square"",[""red"",""blue"",""green""],[20,100,60]]",2.0,P,,,,
800.0, ,,html-keyboard-response,136,629395,0.0-6.0-2.2-0.47-1.47,14,1,2024-03-26 11:54:44,8dc0f95afc5e1bb424f9b02304a59b81,WebKit,,,,<p><b>Incorrect.</b></p>You can see the right answer underlined in the record on the right part of the screen.</p><p>Press any key to continue</p>,,,,,,,,,,,
3631.0,l,,canvas-keyboard-response,137,633028,0.0-6.0-2.2-0.48-0.48,14,1,2024-03-26 11:54:44,8dc0f95afc5e1bb424f9b02304a59b81,WebKit,,,,,listener_LOT_only,l,True,,"[[1,0,2],""draw_triangle"",""draw_circle"",""draw_square"",[""red"",""blue"",""green""],[20,100,60]]",2.0,P,,,,
450.0, ,,html-keyboard-response,138,633481,0.0-6.0-2.2-0.48-1.48,14,1,2024-03-26 11:54:44,8dc0f95afc5e1bb424f9b02304a59b81,WebKit,,,,<p><b>Correct!</b></p>You returned the object that the other participant wanted you to return.</p><p>Press any key to continue</p>,,,,,,,,,,,
760.0,j,,canvas-keyboard-response,139,634243,0.0-6.0-2.2-0.49-0.49,14,1,2024-03-26 11:54:44,8dc0f95afc5e1bb424f9b02304a59b81,WebKit,,,,,listener_LOT_only,j,True,,"[[1,0,2],""draw_triangle"",""draw_circle"",""draw_square"",[""red"",""blue"",""green""],[20,100,60]]",2.0,P,,,,
424.0, ,,html-keyboard-response,140,634669,0.0-6.0-2.2-0.49-1.49,14,1,2024-03-26 11:54:44,8dc0f95afc5e1bb424f9b02304a59b81,WebKit,,,,<p><b>Correct!</b></p>You returned the object that the other participant wanted you to return.</p><p>Press any key to continue</p>,,,,,,,,,,,
1018.0,k,,canvas-keyboard-response,141,635689,0.0-6.0-2.2-0.50-0.50,14,1,2024-03-26 11:54:44,8dc0f95afc5e1bb424f9b02304a59b81,WebKit,,,,,listener_LOT_only,k,True,,"[[1,0,2],""draw_triangle"",""draw_circle"",""draw_square"",[""red"",""blue"",""green""],[20,100,60]]",2.0,P,cr,,,
438.0, ,,html-keyboard-response,142,636129,0.0-6.0-2.2-0.50-1.50,14,1,2024-03-26 11:54:44,8dc0f95afc5e1bb424f9b02304a59b81,WebKit,,,,<p><b>Correct!</b></p>You returned the object that the other participant wanted you to return.</p><p>Press any key to continue</p>,,,,,,,,,,,
5385.0,k,,canvas-keyboard-response,143,641516,0.0-6.0-2.2-0.51-0.51,14,1,2024-03-26 11:54:44,8dc0f95afc5e1bb424f9b02304a59b81,WebKit,,,,,listener_LOT_only,j,False,,"[[1,0,2],""draw_triangle"",""draw_circle"",""draw_square"",[""red"",""blue"",""green""],[20,100,60]]",2.0,P,,,,
940.0, ,,html-keyboard-response,144,642459,0.0-6.0-2.2-0.51-1.51,14,1,2024-03-26 11:54:44,8dc0f95afc5e1bb424f9b02304a59b81,WebKit,,,,<p><b>Incorrect.</b></p>You can see the right answer underlined in the record on the right part of the screen.</p><p>Press any key to continue</p>,,,,,,,,,,,
2554.0,l,,canvas-keyboard-response,145,645015,0.0-6.0-2.2-0.52-0.52,14,1,2024-03-26 11:54:44,8dc0f95afc5e1bb424f9b02304a59b81,WebKit,,,,,listener_LOT_only,l,True,,"[[1,0,2],""draw_triangle"",""draw_circle"",""draw_square"",[""red"",""blue"",""green""],[20,100,60]]",2.0,P,,,,
406.0, ,,html-keyboard-response,146,645422,0.0-6.0-2.2-0.52-1.52,14,1,2024-03-26 11:54:44,8dc0f95afc5e1bb424f9b02304a59b81,WebKit,,,,<p><b>Correct!</b></p>You returned the object that the other participant wanted you to return.</p><p>Press any key to continue</p>,,,,,,,,,,,
7327.0,k,,canvas-keyboard-response,147,652751,0.0-6.0-2.2-0.53-0.53,14,1,2024-03-26 11:54:44,8dc0f95afc5e1bb424f9b02304a59b81,WebKit,,,,,listener_LOT_only,k,True,,"[[1,0,2],""draw_triangle"",""draw_circle"",""draw_square"",[""red"",""blue"",""green""],[20,100,60]]",2.0,P,cer,,,
660.0, ,,html-keyboard-response,148,653413,0.0-6.0-2.2-0.53-1.53,14,1,2024-03-26 11:54:44,8dc0f95afc5e1bb424f9b02304a59b81,WebKit,,,,<p><b>Correct!</b></p>You returned the object that the other participant wanted you to return.</p><p>Press any key to continue</p>,,,,,,,,,,,
1565.0,j,,canvas-keyboard-response,149,654981,0.0-6.0-2.2-0.54-0.54,14,1,2024-03-26 11:54:44,8dc0f95afc5e1bb424f9b02304a59b81,WebKit,,,,,listener_LOT_only,j,True,,"[[1,0,2],""draw_triangle"",""draw_circle"",""draw_square"",[""red"",""blue"",""green""],[20,100,60]]",2.0,P,,,,
468.0, ,,html-keyboard-response,150,655451,0.0-6.0-2.2-0.54-1.54,14,1,2024-03-26 11:54:44,8dc0f95afc5e1bb424f9b02304a59b81,WebKit,,,,<p><b>Correct!</b></p>You returned the object that the other participant wanted you to return.</p><p>Press any key to continue</p>,,,,,,,,,,,
13939.0, ,,canvas-keyboard-response,151,669393,0.0-6.0-2.2-1.4,14,1,2024-03-26 11:54:44,8dc0f95afc5e1bb424f9b02304a59b81,WebKit,,,,,,,,,,,,,,,
9196.0,"{""P_meaning_participants"":""Big objects, blue squares or green circles""}",[],survey,152,678603,0.0-6.0-2.2-2.4,14,1,2024-03-26 11:54:44,8dc0f95afc5e1bb424f9b02304a59b81,WebKit,,,,,,,,,,,,,100,,
5299.0,l,,canvas-keyboard-response,153,683906,0.0-6.0-2.2-0.55-0.55,14,1,2024-03-26 11:54:44,8dc0f95afc5e1bb424f9b02304a59b81,WebKit,,,,,listener_LOT_only,k,False,,"[[1,0,2],""draw_triangle"",""draw_circle"",""draw_square"",[""red"",""blue"",""green""],[20,100,60]]",2.0,Q,,,,
756.0, ,,html-keyboard-response,154,684664,0.0-6.0-2.2-0.55-1.55,14,1,2024-03-26 11:54:44,8dc0f95afc5e1bb424f9b02304a59b81,WebKit,,,,<p><b>Incorrect.</b></p>You can see the right answer underlined in the record on the right part of the screen.</p><p>Press any key to continue</p>,,,,,,,,,,,
1253.0,l,,canvas-keyboard-response,155,685920,0.0-6.0-2.2-0.56-0.56,14,1,2024-03-26 11:54:44,8dc0f95afc5e1bb424f9b02304a59b81,WebKit,,,,,listener_LOT_only,l,True,,"[[1,0,2],""draw_triangle"",""draw_circle"",""draw_square"",[""red"",""blue"",""green""],[20,100,60]]",2.0,Q,,,,
405.0, ,,html-keyboard-response,156,686327,0.0-6.0-2.2-0.56-1.56,14,1,2024-03-26 11:54:44,8dc0f95afc5e1bb424f9b02304a59b81,WebKit,,,,<p><b>Correct!</b></p>You returned the object that the other participant wanted you to return.</p><p>Press any key to continue</p>,,,,,,,,,,,
502.0,k,,canvas-keyboard-response,157,686831,0.0-6.0-2.2-0.57-0.57,14,1,2024-03-26 11:54:44,8dc0f95afc5e1bb424f9b02304a59b81,WebKit,,,,,listener_LOT_only,k,True,,"[[1,0,2],""draw_triangle"",""draw_circle"",""draw_square"",[""red"",""blue"",""green""],[20,100,60]]",2.0,Q,cr,,,
351.0, ,,html-keyboard-response,158,687184,0.0-6.0-2.2-0.57-1.57,14,1,2024-03-26 11:54:44,8dc0f95afc5e1bb424f9b02304a59b81,WebKit,,,,<p><b>Correct!</b></p>You returned the object that the other participant wanted you to return.</p><p>Press any key to continue</p>,,,,,,,,,,,
580.0,l,,canvas-keyboard-response,159,687765,0.0-6.0-2.2-0.58-0.58,14,1,2024-03-26 11:54:44,8dc0f95afc5e1bb424f9b02304a59b81,WebKit,,,,,listener_LOT_only,l,True,,"[[1,0,2],""draw_triangle"",""draw_circle"",""draw_square"",[""red"",""blue"",""green""],[20,100,60]]",2.0,Q,,,,
382.0, ,,html-keyboard-response,160,688150,0.0-6.0-2.2-0.58-1.58,14,1,2024-03-26 11:54:44,8dc0f95afc5e1bb424f9b02304a59b81,WebKit,,,,<p><b>Correct!</b></p>You returned the object that the other participant wanted you to return.</p><p>Press any key to continue</p>,,,,,,,,,,,
637.0,k,,canvas-keyboard-response,161,688789,0.0-6.0-2.2-0.59-0.59,14,1,2024-03-26 11:54:44,8dc0f95afc5e1bb424f9b02304a59b81,WebKit,,,,,listener_LOT_only,j,False,,"[[1,0,2],""draw_triangle"",""draw_circle"",""draw_square"",[""red"",""blue"",""green""],[20,100,60]]",2.0,Q,,,,
412.0, ,,html-keyboard-response,162,689205,0.0-6.0-2.2-0.59-1.59,14,1,2024-03-26 11:54:44,8dc0f95afc5e1bb424f9b02304a59b81,WebKit,,,,<p><b>Incorrect.</b></p>You can see the right answer underlined in the record on the right part of the screen.</p><p>Press any key to continue</p>,,,,,,,,,,,
585.0,j,,canvas-keyboard-response,163,689792,0.0-6.0-2.2-0.60-0.60,14,1,2024-03-26 11:54:44,8dc0f95afc5e1bb424f9b02304a59b81,WebKit,,,,,listener_LOT_only,k,False,,"[[1,0,2],""draw_triangle"",""draw_circle"",""draw_square"",[""red"",""blue"",""green""],[20,100,60]]",2.0,Q,,,,
333.0, ,,html-keyboard-response,164,690126,0.0-6.0-2.2-0.60-1.60,14,1,2024-03-26 11:54:44,8dc0f95afc5e1bb424f9b02304a59b81,WebKit,,,,<p><b>Incorrect.</b></p>You can see the right answer underlined in the record on the right part of the screen.</p><p>Press any key to continue</p>,,,,,,,,,,,
8247.0,j,,canvas-keyboard-response,165,698376,0.0-6.0-2.2-0.61-0.61,14,1,2024-03-26 11:54:44,8dc0f95afc5e1bb424f9b02304a59b81,WebKit,,,,,listener_LOT_only,j,True,,"[[1,0,2],""draw_triangle"",""draw_circle"",""draw_square"",[""red"",""blue"",""green""],[20,100,60]]",2.0,Q,cr,,,
605.0, ,,html-keyboard-response,166,698982,0.0-6.0-2.2-0.61-1.61,14,1,2024-03-26 11:54:44,8dc0f95afc5e1bb424f9b02304a59b81,WebKit,,,,<p><b>Correct!</b></p>You returned the object that the other participant wanted you to return.</p><p>Press any key to continue</p>,,,,,,,,,,,
611.0,k,,canvas-keyboard-response,167,699596,0.0-6.0-2.2-0.62-0.62,14,1,2024-03-26 11:54:44,8dc0f95afc5e1bb424f9b02304a59b81,WebKit,,,,,listener_LOT_only,j,False,,"[[1,0,2],""draw_triangle"",""draw_circle"",""draw_square"",[""red"",""blue"",""green""],[20,100,60]]",2.0,Q,,,,
704.0, ,,html-keyboard-response,168,700304,0.0-6.0-2.2-0.62-1.62,14,1,2024-03-26 11:54:44,8dc0f95afc5e1bb424f9b02304a59b81,WebKit,,,,<p><b>Incorrect.</b></p>You can see the right answer underlined in the record on the right part of the screen.</p><p>Press any key to continue</p>,,,,,,,,,,,
4019.0,k,,canvas-keyboard-response,169,704325,0.0-6.0-2.2-0.63-0.63,14,1,2024-03-26 11:54:44,8dc0f95afc5e1bb424f9b02304a59b81,WebKit,,,,,listener_LOT_only,j,False,,"[[1,0,2],""draw_triangle"",""draw_circle"",""draw_square"",[""red"",""blue"",""green""],[20,100,60]]",2.0,Q,cw,,,
930.0, ,,html-keyboard-response,170,705257,0.0-6.0-2.2-0.63-1.63,14,1,2024-03-26 11:54:44,8dc0f95afc5e1bb424f9b02304a59b81,WebKit,,,,<p><b>Incorrect.</b></p>You can see the right answer underlined in the record on the right part of the screen.</p><p>Press any key to continue</p>,,,,,,,,,,,
3056.0,l,,canvas-keyboard-response,171,708317,0.0-6.0-2.2-0.64-0.64,14,1,2024-03-26 11:54:44,8dc0f95afc5e1bb424f9b02304a59b81,WebKit,,,,,listener_LOT_only,j,False,,"[[1,0,2],""draw_triangle"",""draw_circle"",""draw_square"",[""red"",""blue"",""green""],[20,100,60]]",2.0,Q,,,,
785.0, ,,html-keyboard-response,172,709104,0.0-6.0-2.2-0.64-1.64,14,1,2024-03-26 11:54:44,8dc0f95afc5e1bb424f9b02304a59b81,WebKit,,,,<p><b>Incorrect.</b></p>You can see the right answer underlined in the record on the right part of the screen.</p><p>Press any key to continue</p>,,,,,,,,,,,
7821.0,l,,canvas-keyboard-response,173,716928,0.0-6.0-2.2-0.65-0.65,14,1,2024-03-26 11:54:44,8dc0f95afc5e1bb424f9b02304a59b81,WebKit,,,,,listener_LOT_only,l,True,,"[[1,0,2],""draw_triangle"",""draw_circle"",""draw_square"",[""red"",""blue"",""green""],[20,100,60]]",2.0,Q,,,,
847.0, ,,html-keyboard-response,174,717776,0.0-6.0-2.2-0.65-1.65,14,1,2024-03-26 11:54:44,8dc0f95afc5e1bb424f9b02304a59b81,WebKit,,,,<p><b>Correct!</b></p>You returned the object that the other participant wanted you to return.</p><p>Press any key to continue</p>,,,,,,,,,,,
20149.0, ,,canvas-keyboard-response,175,737929,0.0-6.0-2.2-1.5,14,1,2024-03-26 11:54:44,8dc0f95afc5e1bb424f9b02304a59b81,WebKit,,,,,,,,,,,,,,,
5042.0,"{""Q_meaning_participants"":""Circles or green triangles""}",[],survey,176,742984,0.0-6.0-2.2-2.5,14,1,2024-03-26 11:54:44,8dc0f95afc5e1bb424f9b02304a59b81,WebKit,,,,,,,,,,,,,not_(60_or_draw_square),,
,,,call-function,177,742987,0.0-6.0-0.3,14,1,2024-03-26 11:54:44,8dc0f95afc5e1bb424f9b02304a59b81,WebKit,,,,,,,,,,,,,,,
6258.0,j,,html-keyboard-response,178,749247,0.0-6.0-1.3,14,1,2024-03-26 11:54:44,8dc0f95afc5e1bb424f9b02304a59b81,WebKit,,,,"<h3>Task 5 of 5</h3><p>In the next task, you will learn the meaning of two concepts, which will be associated with <em>p</em> and <em>q</em>. During the experiment, you will be shown sets of three objects. The same sets of three objects were shown to another participant. That participant was informed about the meaning of the words associated with <em>p</em> and <em>q</em>, unlike you. That participant sent you a message (either <em>p</em> or <em>q</em>) for each set of objects. You will first see all objects associated a message and then all objects associated with the other one. The aim of the participant who sent the messages to you is to have you pick a certain object out of the three displayed ones, for each set of objects. Your task is in fact not only to learn the meaning of the two concepts, but also to select the object that the other participant wanted you to return.</p><p>Of course, in the first couple of trials you will have no idea about the meaning of the concepts in question. That should however change later on. As a help, you will see the record of the trials that you already completed on the right part of the screen. This means that you will see all sets of three objects that were shown to you before, with the one that you were supposed to pick underlined. There is no time limit to complete the task, so please focus on being as accurate as possible in returning the object that the other participant wanted you to return, and look at the right part of the screen for help in solving the task.</p><p> We suggest to keep three fingers on the <em>j</em>, <em>k</em> and <em>l</em> keys, which are the keys that you will need to use to indicate which object you select.</p>",,,,,,,,,,,
4818.0,j,,canvas-keyboard-response,179,754067,0.0-6.0-2.3-0.66-0.66,14,1,2024-03-26 11:54:44,8dc0f95afc5e1bb424f9b02304a59b81,WebKit,,,,,listener_LOT_only,l,False,,"[[1,0,2],""draw_circle"",""draw_triangle"",""draw_square"",[""blue"",""green"",""red""],[20,60,100]]",1.0,P,,,,
687.0, ,,html-keyboard-response,180,754756,0.0-6.0-2.3-0.66-1.66,14,1,2024-03-26 11:54:44,8dc0f95afc5e1bb424f9b02304a59b81,WebKit,,,,<p><b>Incorrect.</b></p>You can see the right answer underlined in the record on the right part of the screen.</p><p>Press any key to continue</p>,,,,,,,,,,,
1240.0,k,,canvas-keyboard-response,181,755999,0.0-6.0-2.3-0.67-0.67,14,1,2024-03-26 11:54:44,8dc0f95afc5e1bb424f9b02304a59b81,WebKit,,,,,listener_LOT_only,k,True,,"[[1,0,2],""draw_circle"",""draw_triangle"",""draw_square"",[""blue"",""green"",""red""],[20,60,100]]",1.0,P,,,,
505.0, ,,html-keyboard-response,182,756507,0.0-6.0-2.3-0.67-1.67,14,1,2024-03-26 11:54:44,8dc0f95afc5e1bb424f9b02304a59b81,WebKit,,,,<p><b>Correct!</b></p>You returned the object that the other participant wanted you to return.</p><p>Press any key to continue</p>,,,,,,,,,,,
1745.0,k,,canvas-keyboard-response,183,758255,0.0-6.0-2.3-0.68-0.68,14,1,2024-03-26 11:54:44,8dc0f95afc5e1bb424f9b02304a59b81,WebKit,,,,,listener_LOT_only,k,True,,"[[1,0,2],""draw_circle"",""draw_triangle"",""draw_square"",[""blue"",""green"",""red""],[20,60,100]]",1.0,P,cr,,,
428.0, ,,html-keyboard-response,184,758686,0.0-6.0-2.3-0.68-1.68,14,1,2024-03-26 11:54:44,8dc0f95afc5e1bb424f9b02304a59b81,WebKit,,,,<p><b>Correct!</b></p>You returned the object that the other participant wanted you to return.</p><p>Press any key to continue</p>,,,,,,,,,,,
1838.0,l,,canvas-keyboard-response,185,760527,0.0-6.0-2.3-0.69-0.69,14,1,2024-03-26 11:54:44,8dc0f95afc5e1bb424f9b02304a59b81,WebKit,,,,,listener_LOT_only,k,False,,"[[1,0,2],""draw_circle"",""draw_triangle"",""draw_square"",[""blue"",""green"",""red""],[20,60,100]]",1.0,P,,,,
799.0, ,,html-keyboard-response,186,761330,0.0-6.0-2.3-0.69-1.69,14,1,2024-03-26 11:54:44,8dc0f95afc5e1bb424f9b02304a59b81,WebKit,,,,<p><b>Incorrect.</b></p>You can see the right answer underlined in the record on the right part of the screen.</p><p>Press any key to continue</p>,,,,,,,,,,,
2520.0,k,,canvas-keyboard-response,187,763853,0.0-6.0-2.3-0.70-0.70,14,1,2024-03-26 11:54:44,8dc0f95afc5e1bb424f9b02304a59b81,WebKit,,,,,listener_LOT_only,k,True,,"[[1,0,2],""draw_circle"",""draw_triangle"",""draw_square"",[""blue"",""green"",""red""],[20,60,100]]",1.0,P,,,,
547.0, ,,html-keyboard-response,188,764402,0.0-6.0-2.3-0.70-1.70,14,1,2024-03-26 11:54:44,8dc0f95afc5e1bb424f9b02304a59b81,WebKit,,,,<p><b>Correct!</b></p>You returned the object that the other participant wanted you to return.</p><p>Press any key to continue</p>,,,,,,,,,,,
686.0,l,,canvas-keyboard-response,189,765091,0.0-6.0-2.3-0.71-0.71,14,1,2024-03-26 11:54:44,8dc0f95afc5e1bb424f9b02304a59b81,WebKit,,,,,listener_LOT_only,l,True,,"[[1,0,2],""draw_circle"",""draw_triangle"",""draw_square"",[""blue"",""green"",""red""],[20,60,100]]",1.0,P,cr,,,
369.0, ,,html-keyboard-response,190,765462,0.0-6.0-2.3-0.71-1.71,14,1,2024-03-26 11:54:44,8dc0f95afc5e1bb424f9b02304a59b81,WebKit,,,,<p><b>Correct!</b></p>You returned the object that the other participant wanted you to return.</p><p>Press any key to continue</p>,,,,,,,,,,,
628.0,j,,canvas-keyboard-response,191,766093,0.0-6.0-2.3-0.72-0.72,14,1,2024-03-26 11:54:44,8dc0f95afc5e1bb424f9b02304a59b81,WebKit,,,,,listener_LOT_only,j,True,,"[[1,0,2],""draw_circle"",""draw_triangle"",""draw_square"",[""blue"",""green"",""red""],[20,60,100]]",1.0,P,,,,
507.0, ,,html-keyboard-response,192,766602,0.0-6.0-2.3-0.72-1.72,14,1,2024-03-26 11:54:44,8dc0f95afc5e1bb424f9b02304a59b81,WebKit,,,,<p><b>Correct!</b></p>You returned the object that the other participant wanted you to return.</p><p>Press any key to continue</p>,,,,,,,,,,,
3759.0,l,,canvas-keyboard-response,193,770363,0.0-6.0-2.3-0.73-0.73,14,1,2024-03-26 11:54:44,8dc0f95afc5e1bb424f9b02304a59b81,WebKit,,,,,listener_LOT_only,l,True,,"[[1,0,2],""draw_circle"",""draw_triangle"",""draw_square"",[""blue"",""green"",""red""],[20,60,100]]",1.0,P,cr,,,
551.0, ,,html-keyboard-response,194,770916,0.0-6.0-2.3-0.73-1.73,14,1,2024-03-26 11:54:44,8dc0f95afc5e1bb424f9b02304a59b81,WebKit,,,,<p><b>Correct!</b></p>You returned the object that the other participant wanted you to return.</p><p>Press any key to continue</p>,,,,,,,,,,,
820.0,k,,canvas-keyboard-response,195,771739,0.0-6.0-2.3-0.74-0.74,14,1,2024-03-26 11:54:44,8dc0f95afc5e1bb424f9b02304a59b81,WebKit,,,,,listener_LOT_only,k,True,,"[[1,0,2],""draw_circle"",""draw_triangle"",""draw_square"",[""blue"",""green"",""red""],[20,60,100]]",1.0,P,cr,,,
486.0, ,,html-keyboard-response,196,772228,0.0-6.0-2.3-0.74-1.74,14,1,2024-03-26 11:54:44,8dc0f95afc5e1bb424f9b02304a59b81,WebKit,,,,<p><b>Correct!</b></p>You returned the object that the other participant wanted you to return.</p><p>Press any key to continue</p>,,,,,,,,,,,
3935.0,k,,canvas-keyboard-response,197,776166,0.0-6.0-2.3-0.75-0.75,14,1,2024-03-26 11:54:44,8dc0f95afc5e1bb424f9b02304a59b81,WebKit,,,,,listener_LOT_only,l,False,,"[[1,0,2],""draw_circle"",""draw_triangle"",""draw_square"",[""blue"",""green"",""red""],[20,60,100]]",1.0,P,,,,
1019.0, ,,html-keyboard-response,198,777188,0.0-6.0-2.3-0.75-1.75,14,1,2024-03-26 11:54:44,8dc0f95afc5e1bb424f9b02304a59b81,WebKit,,,,<p><b>Incorrect.</b></p>You can see the right answer underlined in the record on the right part of the screen.</p><p>Press any key to continue</p>,,,,,,,,,,,
6833.0,k,,canvas-keyboard-response,199,784024,0.0-6.0-2.3-0.76-0.76,14,1,2024-03-26 11:54:44,8dc0f95afc5e1bb424f9b02304a59b81,WebKit,,,,,listener_LOT_only,l,False,,"[[1,0,2],""draw_circle"",""draw_triangle"",""draw_square"",[""blue"",""green"",""red""],[20,60,100]]",1.0,P,cw,,,
755.0, ,,html-keyboard-response,200,784781,0.0-6.0-2.3-0.76-1.76,14,1,2024-03-26 11:54:44,8dc0f95afc5e1bb424f9b02304a59b81,WebKit,,,,<p><b>Incorrect.</b></p>You can see the right answer underlined in the record on the right part of the screen.</p><p>Press any key to continue</p>,,,,,,,,,,,
9985.0, ,,canvas-keyboard-response,201,794769,0.0-6.0-2.3-1.6,14,1,2024-03-26 11:54:44,8dc0f95afc5e1bb424f9b02304a59b81,WebKit,,,,,,,,,,,,,,,
7130.0,"{""P_meaning_participants"":""Squares, preferably red""}",[],survey,202,801913,0.0-6.0-2.3-2.6,14,1,2024-03-26 11:54:44,8dc0f95afc5e1bb424f9b02304a59b81,WebKit,,,,,,,,,,,,,draw_square_and_not_blue,,
12735.0,k,,canvas-keyboard-response,203,814652,0.0-6.0-2.3-0.77-0.77,14,1,2024-03-26 11:54:44,8dc0f95afc5e1bb424f9b02304a59b81,WebKit,,,,,listener_LOT_only,j,False,,"[[1,0,2],""draw_circle"",""draw_triangle"",""draw_square"",[""blue"",""green"",""red""],[20,60,100]]",1.0,Q,,,,
589.0, ,,html-keyboard-response,204,815244,0.0-6.0-2.3-0.77-1.77,14,1,2024-03-26 11:54:44,8dc0f95afc5e1bb424f9b02304a59b81,WebKit,,,,<p><b>Incorrect.</b></p>You can see the right answer underlined in the record on the right part of the screen.</p><p>Press any key to continue</p>,,,,,,,,,,,
1905.0,l,,canvas-keyboard-response,205,817151,0.0-6.0-2.3-0.78-0.78,14,1,2024-03-26 11:54:44,8dc0f95afc5e1bb424f9b02304a59b81,WebKit,,,,,listener_LOT_only,l,True,,"[[1,0,2],""draw_circle"",""draw_triangle"",""draw_square"",[""blue"",""green"",""red""],[20,60,100]]",1.0,Q,,,,
686.0, ,,html-keyboard-response,206,817840,0.0-6.0-2.3-0.78-1.78,14,1,2024-03-26 11:54:44,8dc0f95afc5e1bb424f9b02304a59b81,WebKit,,,,<p><b>Correct!</b></p>You returned the object that the other participant wanted you to return.</p><p>Press any key to continue</p>,,,,,,,,,,,
458.0,j,,canvas-keyboard-response,207,818301,0.0-6.0-2.3-0.79-0.79,14,1,2024-03-26 11:54:44,8dc0f95afc5e1bb424f9b02304a59b81,WebKit,,,,,listener_LOT_only,j,True,,"[[1,0,2],""draw_circle"",""draw_triangle"",""draw_square"",[""blue"",""green"",""red""],[20,60,100]]",1.0,Q,,,,
557.0, ,,html-keyboard-response,208,818862,0.0-6.0-2.3-0.79-1.79,14,1,2024-03-26 11:54:44,8dc0f95afc5e1bb424f9b02304a59b81,WebKit,,,,<p><b>Correct!</b></p>You returned the object that the other participant wanted you to return.</p><p>Press any key to continue</p>,,,,,,,,,,,
638.0,k,,canvas-keyboard-response,209,819503,0.0-6.0-2.3-0.80-0.80,14,1,2024-03-26 11:54:44,8dc0f95afc5e1bb424f9b02304a59b81,WebKit,,,,,listener_LOT_only,k,True,,"[[1,0,2],""draw_circle"",""draw_triangle"",""draw_square"",[""blue"",""green"",""red""],[20,60,100]]",1.0,Q,cr,,,
725.0, ,,html-keyboard-response,210,820231,0.0-6.0-2.3-0.80-1.80,14,1,2024-03-26 11:54:44,8dc0f95afc5e1bb424f9b02304a59b81,WebKit,,,,<p><b>Correct!</b></p>You returned the object that the other participant wanted you to return.</p><p>Press any key to continue</p>,,,,,,,,,,,
499.0,l,,canvas-keyboard-response,211,820733,0.0-6.0-2.3-0.81-0.81,14,1,2024-03-26 11:54:44,8dc0f95afc5e1bb424f9b02304a59b81,WebKit,,,,,listener_LOT_only,l,True,,"[[1,0,2],""draw_circle"",""draw_triangle"",""draw_square"",[""blue"",""green"",""red""],[20,60,100]]",1.0,Q,,,,
457.0, ,,html-keyboard-response,212,821194,0.0-6.0-2.3-0.81-1.81,14,1,2024-03-26 11:54:44,8dc0f95afc5e1bb424f9b02304a59b81,WebKit,,,,<p><b>Correct!</b></p>You returned the object that the other participant wanted you to return.</p><p>Press any key to continue</p>,,,,,,,,,,,
684.0,k,,canvas-keyboard-response,213,821881,0.0-6.0-2.3-0.82-0.82,14,1,2024-03-26 11:54:44,8dc0f95afc5e1bb424f9b02304a59b81,WebKit,,,,,listener_LOT_only,k,True,,"[[1,0,2],""draw_circle"",""draw_triangle"",""draw_square"",[""blue"",""green"",""red""],[20,60,100]]",1.0,Q,,,,
472.0, ,,html-keyboard-response,214,822357,0.0-6.0-2.3-0.82-1.82,14,1,2024-03-26 11:54:44,8dc0f95afc5e1bb424f9b02304a59b81,WebKit,,,,<p><b>Correct!</b></p>You returned the object that the other participant wanted you to return.</p><p>Press any key to continue</p>,,,,,,,,,,,
21665.0,j,,canvas-keyboard-response,215,844025,0.0-6.0-2.3-0.83-0.83,14,1,2024-03-26 11:54:44,8dc0f95afc5e1bb424f9b02304a59b81,WebKit,,,,,listener_LOT_only,l,False,,"[[1,0,2],""draw_circle"",""draw_triangle"",""draw_square"",[""blue"",""green"",""red""],[20,60,100]]",1.0,Q,,,,
784.0, ,,html-keyboard-response,216,844812,0.0-6.0-2.3-0.83-1.83,14,1,2024-03-26 11:54:44,8dc0f95afc5e1bb424f9b02304a59b81,WebKit,,,,<p><b>Incorrect.</b></p>You can see the right answer underlined in the record on the right part of the screen.</p><p>Press any key to continue</p>,,,,,,,,,,,
5434.0,k,,canvas-keyboard-response,217,850249,0.0-6.0-2.3-0.84-0.84,14,1,2024-03-26 11:54:44,8dc0f95afc5e1bb424f9b02304a59b81,WebKit,,,,,listener_LOT_only,k,True,,"[[1,0,2],""draw_circle"",""draw_triangle"",""draw_square"",[""blue"",""green"",""red""],[20,60,100]]",1.0,Q,,,,
668.0, ,,html-keyboard-response,218,850920,0.0-6.0-2.3-0.84-1.84,14,1,2024-03-26 11:54:44,8dc0f95afc5e1bb424f9b02304a59b81,WebKit,,,,<p><b>Correct!</b></p>You returned the object that the other participant wanted you to return.</p><p>Press any key to continue</p>,,,,,,,,,,,
1420.0,k,,canvas-keyboard-response,219,852343,0.0-6.0-2.3-0.85-0.85,14,1,2024-03-26 11:54:44,8dc0f95afc5e1bb424f9b02304a59b81,WebKit,,,,,listener_LOT_only,k,True,,"[[1,0,2],""draw_circle"",""draw_triangle"",""draw_square"",[""blue"",""green"",""red""],[20,60,100]]",1.0,Q,,,,
551.0, ,,html-keyboard-response,220,852896,0.0-6.0-2.3-0.85-1.85,14,1,2024-03-26 11:54:44,8dc0f95afc5e1bb424f9b02304a59b81,WebKit,,,,<p><b>Correct!</b></p>You returned the object that the other participant wanted you to return.</p><p>Press any key to continue</p>,,,,,,,,,,,
18699.0,j,,canvas-keyboard-response,221,871599,0.0-6.0-2.3-0.86-0.86,14,1,2024-03-26 11:54:44,8dc0f95afc5e1bb424f9b02304a59b81,WebKit,,,,,listener_LOT_only,j,True,,"[[1,0,2],""draw_circle"",""draw_triangle"",""draw_square"",[""blue"",""green"",""red""],[20,60,100]]",1.0,Q,,,,
674.0, ,,html-keyboard-response,222,872276,0.0-6.0-2.3-0.86-1.86,14,1,2024-03-26 11:54:44,8dc0f95afc5e1bb424f9b02304a59b81,WebKit,,,,<p><b>Correct!</b></p>You returned the object that the other participant wanted you to return.</p><p>Press any key to continue</p>,,,,,,,,,,,
2728.0,l,,canvas-keyboard-response,223,875007,0.0-6.0-2.3-0.87-0.87,14,1,2024-03-26 11:54:44,8dc0f95afc5e1bb424f9b02304a59b81,WebKit,,,,,listener_LOT_only,l,True,,"[[1,0,2],""draw_circle"",""draw_triangle"",""draw_square"",[""blue"",""green"",""red""],[20,60,100]]",1.0,Q,,,,
548.0, ,,html-keyboard-response,224,875558,0.0-6.0-2.3-0.87-1.87,14,1,2024-03-26 11:54:44,8dc0f95afc5e1bb424f9b02304a59b81,WebKit,,,,<p><b>Correct!</b></p>You returned the object that the other participant wanted you to return.</p><p>Press any key to continue</p>,,,,,,,,,,,
17846.0, ,,canvas-keyboard-response,225,893407,0.0-6.0-2.3-1.7,14,1,2024-03-26 11:54:44,8dc0f95afc5e1bb424f9b02304a59b81,WebKit,,,,,,,,,,,,,,,
5091.0,"{""Q_meaning_participants"":""Blue or small objects""}",[],survey,226,898512,0.0-6.0-2.3-2.7,14,1,2024-03-26 11:54:44,8dc0f95afc5e1bb424f9b02304a59b81,WebKit,,,,,,,,,,,,,20_or_blue,,
17541.0,,[],survey,0,17588,0.0-0.0,30,1,2024-03-26 13:13:04,8dc0f95afc5e1bb424f9b02304a59b81,WebKit,https://uu.blackboard.com/,,,,,,,,,,,,,,
,,,browser-check,1,17590,0.0-1.0,30,1,2024-03-26 13:13:04,8dc0f95afc5e1bb424f9b02304a59b81,WebKit,https://uu.blackboard.com/,False,,,,,,,,,,,,,
913.0,,,fullscreen,2,19507,0.0-2.0,30,1,2024-03-26 13:13:04,8dc0f95afc5e1bb424f9b02304a59b81,WebKit,https://uu.blackboard.com/,,True,,,,,,,,,,,,
2642.0,q,,html-keyboard-response,3,22150,0.0-3.0,30,1,2024-03-26 13:13:04,8dc0f95afc5e1bb424f9b02304a59b81,WebKit,https://uu.blackboard.com/,,,"<h3>Task 1 of 5</h3><p>Your next task is to help another participant learn the meaning of two concepts that will be associated with <em>p</em> and <em>q</em>. The meaning of such concepts will be made clear to you. You will in fact see a description of each concept on top of the screen.</p><p>During the experiment, you will be shown three objects. The same three objects will be shown to another participant, who, unlike you, will need to learn the meaning of the words associated with <em>p</em> and <em>q</em>. One of the three objects will be underlined for you, but not for the other participant. You need to communicate either <em>p</em> or <em>q</em> to the other participant. Your goal is to make sure that that participant picks the underlined objects among the three displayed ones.</p><p>Being unaware of the meaning of <em>p</em> and <em>q</em>, the other participant will likely not be able to pick the right object in the first trials. However, both of you will be shown many sets containing three objects. In time, the other participant can thus learn the meaning of the words associated with <em>p</em> and <em>q</em> and become more accurate in returning the object which you wanted to be returned (the one underlined for you).</p><p>During the whole task, please take your time and send the message that you think is best to send in each situation. On the right part of the screen, you will see the record of trials you completed.</p><p>We suggest to keep a finger of the right hand on the <em>p</em> key and a finger of the left hand on the <em>q</em> key (ideally the index fingers).</p>",,,,,,,,,,,
8144.0,p,,canvas-keyboard-response,4,30297,0.0-4.0-0.0,30,1,2024-03-26 13:13:04,8dc0f95afc5e1bb424f9b02304a59b81,WebKit,https://uu.blackboard.com/,,,,speaker,p,True,,,,,,,,
1744.0,p,,canvas-keyboard-response,5,32044,0.0-4.1-0.1,30,1,2024-03-26 13:13:04,8dc0f95afc5e1bb424f9b02304a59b81,WebKit,https://uu.blackboard.com/,,,,speaker,p,True,,,,,,,,
1997.0,q,,canvas-keyboard-response,6,34044,0.0-4.2-0.2,30,1,2024-03-26 13:13:04,8dc0f95afc5e1bb424f9b02304a59b81,WebKit,https://uu.blackboard.com/,,,,speaker,q,True,,,,,,,,
873.0,p,,canvas-keyboard-response,7,34921,0.0-4.3-0.3,30,1,2024-03-26 13:13:04,8dc0f95afc5e1bb424f9b02304a59b81,WebKit,https://uu.blackboard.com/,,,,speaker,p,True,,,,,,,,
745.0,q,,canvas-keyboard-response,8,35668,0.0-4.4-0.4,30,1,2024-03-26 13:13:04,8dc0f95afc5e1bb424f9b02304a59b81,WebKit,https://uu.blackboard.com/,,,,speaker,q,True,,,,,,,,
676.0,q,,canvas-keyboard-response,9,36345,0.0-4.5-0.5,30,1,2024-03-26 13:13:04,8dc0f95afc5e1bb424f9b02304a59b81,WebKit,https://uu.blackboard.com/,,,,speaker,q,True,,,,,,,,
2204.0,q,,canvas-keyboard-response,10,38552,0.0-4.6-0.6,30,1,2024-03-26 13:13:04,8dc0f95afc5e1bb424f9b02304a59b81,WebKit,https://uu.blackboard.com/,,,,speaker,q,True,,,,,,,,
682.0,q,,canvas-keyboard-response,11,39236,0.0-4.7-0.7,30,1,2024-03-26 13:13:04,8dc0f95afc5e1bb424f9b02304a59b81,WebKit,https://uu.blackboard.com/,,,,speaker,q,True,,,,,,,,
738.0,p,,canvas-keyboard-response,12,39977,0.0-4.8-0.8,30,1,2024-03-26 13:13:04,8dc0f95afc5e1bb424f9b02304a59b81,WebKit,https://uu.blackboard.com/,,,,speaker,p,True,,,,,,,,
557.0,q,,canvas-keyboard-response,13,40535,0.0-4.9-0.9,30,1,2024-03-26 13:13:04,8dc0f95afc5e1bb424f9b02304a59b81,WebKit,https://uu.blackboard.com/,,,,speaker,q,True,,,,,,,,
791.0,p,,canvas-keyboard-response,14,41328,0.0-4.10-0.10,30,1,2024-03-26 13:13:04,8dc0f95afc5e1bb424f9b02304a59b81,WebKit,https://uu.blackboard.com/,,,,speaker,p,True,,,,,,,,
1218.0,p,,canvas-keyboard-response,15,42549,0.0-4.11-0.11,30,1,2024-03-26 13:13:04,8dc0f95afc5e1bb424f9b02304a59b81,WebKit,https://uu.blackboard.com/,,,,speaker,p,True,,,,,,,,
3749.0,p,,canvas-keyboard-response,16,46300,0.0-4.12-0.12,30,1,2024-03-26 13:13:04,8dc0f95afc5e1bb424f9b02304a59b81,WebKit,https://uu.blackboard.com/,,,,speaker,q,False,,,,,,,,
637.0,q,,canvas-keyboard-response,17,46941,0.0-4.13-0.13,30,1,2024-03-26 13:13:04,8dc0f95afc5e1bb424f9b02304a59b81,WebKit,https://uu.blackboard.com/,,,,speaker,q,True,,,,,,,,
984.0,p,,canvas-keyboard-response,18,47928,0.0-4.14-0.14,30,1,2024-03-26 13:13:04,8dc0f95afc5e1bb424f9b02304a59b81,WebKit,https://uu.blackboard.com/,,,,speaker,p,True,,,,,,,,
822.0,q,,canvas-keyboard-response,19,48752,0.0-4.15-0.15,30,1,2024-03-26 13:13:04,8dc0f95afc5e1bb424f9b02304a59b81,WebKit,https://uu.blackboard.com/,,,,speaker,q,True,,,,,,,,
841.0,q,,canvas-keyboard-response,20,49596,0.0-4.16-0.16,30,1,2024-03-26 13:13:04,8dc0f95afc5e1bb424f9b02304a59b81,WebKit,https://uu.blackboard.com/,,,,speaker,q,True,,,,,,,,
836.0,p,,canvas-keyboard-response,21,50436,0.0-4.17-0.17,30,1,2024-03-26 13:13:04,8dc0f95afc5e1bb424f9b02304a59b81,WebKit,https://uu.blackboard.com/,,,,speaker,p,True,,,,,,,,
1026.0,p,,canvas-keyboard-response,22,51465,0.0-4.18-0.18,30,1,2024-03-26 13:13:04,8dc0f95afc5e1bb424f9b02304a59b81,WebKit,https://uu.blackboard.com/,,,,speaker,p,True,,,,,,,,
568.0,p,,canvas-keyboard-response,23,52036,0.0-4.19-0.19,30,1,2024-03-26 13:13:04,8dc0f95afc5e1bb424f9b02304a59b81,WebKit,https://uu.blackboard.com/,,,,speaker,p,True,,,,,,,,
658.0,q,,canvas-keyboard-response,24,52697,0.0-4.20-0.20,30,1,2024-03-26 13:13:04,8dc0f95afc5e1bb424f9b02304a59b81,WebKit,https://uu.blackboard.com/,,,,speaker,q,True,,,,,,,,
1720.0,p,,canvas-keyboard-response,25,54421,0.0-4.21-0.21,30,1,2024-03-26 13:13:04,8dc0f95afc5e1bb424f9b02304a59b81,WebKit,https://uu.blackboard.com/,,,,speaker,p,True,,,,,,,,
1704.0, ,,canvas-keyboard-response,26,56129,0.0-5.0,30,1,2024-03-26 13:13:04,8dc0f95afc5e1bb424f9b02304a59b81,WebKit,https://uu.blackboard.com/,,,,,,,,,,,,,,
,,,call-function,27,56131,0.0-6.0-0.0,30,1,2024-03-26 13:13:04,8dc0f95afc5e1bb424f9b02304a59b81,WebKit,https://uu.blackboard.com/,,,,,,,,,,,,,,
2752.0,j,,html-keyboard-response,28,58885,0.0-6.0-1.0,30,1,2024-03-26 13:13:04,8dc0f95afc5e1bb424f9b02304a59b81,WebKit,https://uu.blackboard.com/,,,"<h3>Task 2 of 5</h3><p>In the next task, you will learn the meaning of two concepts, which will be associated with <em>p</em> and <em>q</em>. During the experiment, you will be shown sets of three objects. The same sets of three objects were shown to another participant, in the same order in which they will be shown to you. That participant was informed about the meaning of the words associated with <em>p</em> and <em>q</em>, unlike you. That participant sent you a message (either <em>p</em> or <em>q</em>) for each set of objects. Such messages will appear next to each set of objects. The aim of the participant who sent the messages to you is to have you pick a certain object out of the three displayed ones, for each set of objects. Your task is in fact not only to learn the meaning of the two concepts, but also to select the object that the other participant wanted you to return.</p><p>Of course, in the first couple of trials you will have no idea about the meaning of the concepts in question. That should however change later on. As a help, you will see the record of the trials that you already completed on the right part of the screen. This means that you will see all sets of three objects that were shown to you before, with the one that you were supposed to pick underlined, together with the message sent by the other participant. There is no time limit to complete the task, so please focus on being as accurate as possible in returning the object that the other participant wanted you to return, and look at the right part of the screen for help in solving the task.</p><p> We suggest to keep three fingers on the <em>j</em>, <em>k</em> and <em>l</em> keys, which are the keys that you will need to use to indicate which object you select.</p>",,,,,,,,,,,
1649.0,j,,canvas-keyboard-response,29,60537,0.0-6.0-2.0-0.0,30,1,2024-03-26 13:13:04,8dc0f95afc5e1bb424f9b02304a59b81,WebKit,https://uu.blackboard.com/,,,,listener,j,True,,"[[0,2,1],""draw_triangle"",""draw_square"",""draw_circle"",[""red"",""blue"",""green""],[100,20,60]]",3.0,,,,,
1338.0,j,,html-keyboard-response,30,61879,0.0-6.0-2.0-1.0,30,1,2024-03-26 13:13:04,8dc0f95afc5e1bb424f9b02304a59b81,WebKit,https://uu.blackboard.com/,,,<p><b>Correct!</b></p>You returned the object that the other participant wanted you to return.</p><p>Press any key to continue</p>,,,,,,,,,,,
1596.0,k,,canvas-keyboard-response,31,63477,0.0-6.0-2.1-0.1,30,1,2024-03-26 13:13:04,8dc0f95afc5e1bb424f9b02304a59b81,WebKit,https://uu.blackboard.com/,,,,listener,l,False,,"[[0,2,1],""draw_triangle"",""draw_square"",""draw_circle"",[""red"",""blue"",""green""],[100,20,60]]",3.0,,,,,
1370.0,k,,html-keyboard-response,32,64849,0.0-6.0-2.1-1.1,30,1,2024-03-26 13:13:04,8dc0f95afc5e1bb424f9b02304a59b81,WebKit,https://uu.blackboard.com/,,,<p><b>Incorrect.</b></p>You can see the right answer underlined in the record on the right part of the screen.</p><p>Press any key to continue</p>,,,,,,,,,,,
4532.0,j,,canvas-keyboard-response,33,69384,0.0-6.0-2.2-0.2,30,1,2024-03-26 13:13:04,8dc0f95afc5e1bb424f9b02304a59b81,WebKit,https://uu.blackboard.com/,,,,listener,j,True,,"[[0,2,1],""draw_triangle"",""draw_square"",""draw_circle"",[""red"",""blue"",""green""],[100,20,60]]",3.0,,,,,
672.0,j,,html-keyboard-response,34,70056,0.0-6.0-2.2-1.2,30,1,2024-03-26 13:13:04,8dc0f95afc5e1bb424f9b02304a59b81,WebKit,https://uu.blackboard.com/,,,<p><b>Correct!</b></p>You returned the object that the other participant wanted you to return.</p><p>Press any key to continue</p>,,,,,,,,,,,
6636.0,j,,canvas-keyboard-response,35,76693,0.0-6.0-2.3-0.3,30,1,2024-03-26 13:13:04,8dc0f95afc5e1bb424f9b02304a59b81,WebKit,https://uu.blackboard.com/,,,,listener,j,True,,"[[0,2,1],""draw_triangle"",""draw_square"",""draw_circle"",[""red"",""blue"",""green""],[100,20,60]]",3.0,,cer,,,
494.0,j,,html-keyboard-response,36,77189,0.0-6.0-2.3-1.3,30,1,2024-03-26 13:13:04,8dc0f95afc5e1bb424f9b02304a59b81,WebKit,https://uu.blackboard.com/,,,<p><b>Correct!</b></p>You returned the object that the other participant wanted you to return.</p><p>Press any key to continue</p>,,,,,,,,,,,
3925.0,k,,canvas-keyboard-response,37,81117,0.0-6.0-2.4-0.4,30,1,2024-03-26 13:13:04,8dc0f95afc5e1bb424f9b02304a59b81,WebKit,https://uu.blackboard.com/,,,,listener,k,True,,"[[0,2,1],""draw_triangle"",""draw_square"",""draw_circle"",[""red"",""blue"",""green""],[100,20,60]]",3.0,,pr,,,
455.0,k,,html-keyboard-response,38,81573,0.0-6.0-2.4-1.4,30,1,2024-03-26 13:13:04,8dc0f95afc5e1bb424f9b02304a59b81,WebKit,https://uu.blackboard.com/,,,<p><b>Correct!</b></p>You returned the object that the other participant wanted you to return.</p><p>Press any key to continue</p>,,,,,,,,,,,
5185.0,k,,canvas-keyboard-response,39,86761,0.0-6.0-2.5-0.5,30,1,2024-03-26 13:13:04,8dc0f95afc5e1bb424f9b02304a59b81,WebKit,https://uu.blackboard.com/,,,,listener,k,True,,"[[0,2,1],""draw_triangle"",""draw_square"",""draw_circle"",[""red"",""blue"",""green""],[100,20,60]]",3.0,,,,,
550.0,k,,html-keyboard-response,40,87313,0.0-6.0-2.5-1.5,30,1,2024-03-26 13:13:04,8dc0f95afc5e1bb424f9b02304a59b81,WebKit,https://uu.blackboard.com/,,,<p><b>Correct!</b></p>You returned the object that the other participant wanted you to return.</p><p>Press any key to continue</p>,,,,,,,,,,,
2117.0,j,,canvas-keyboard-response,41,89433,0.0-6.0-2.6-0.6,30,1,2024-03-26 13:13:04,8dc0f95afc5e1bb424f9b02304a59b81,WebKit,https://uu.blackboard.com/,,,,listener,j,True,,"[[0,2,1],""draw_triangle"",""draw_square"",""draw_circle"",[""red"",""blue"",""green""],[100,20,60]]",3.0,,,,,
405.0,j,,html-keyboard-response,42,89840,0.0-6.0-2.6-1.6,30,1,2024-03-26 13:13:04,8dc0f95afc5e1bb424f9b02304a59b81,WebKit,https://uu.blackboard.com/,,,<p><b>Correct!</b></p>You returned the object that the other participant wanted you to return.</p><p>Press any key to continue</p>,,,,,,,,,,,
1159.0,l,,canvas-keyboard-response,43,91000,0.0-6.0-2.7-0.7,30,1,2024-03-26 13:13:04,8dc0f95afc5e1bb424f9b02304a59b81,WebKit,https://uu.blackboard.com/,,,,listener,j,False,,"[[0,2,1],""draw_triangle"",""draw_square"",""draw_circle"",[""red"",""blue"",""green""],[100,20,60]]",3.0,,,,,
450.0,k,,html-keyboard-response,44,91452,0.0-6.0-2.7-1.7,30,1,2024-03-26 13:13:04,8dc0f95afc5e1bb424f9b02304a59b81,WebKit,https://uu.blackboard.com/,,,<p><b>Incorrect.</b></p>You can see the right answer underlined in the record on the right part of the screen.</p><p>Press any key to continue</p>,,,,,,,,,,,
15078.0,j,,canvas-keyboard-response,45,106531,0.0-6.0-2.8-0.8,30,1,2024-03-26 13:13:04,8dc0f95afc5e1bb424f9b02304a59b81,WebKit,https://uu.blackboard.com/,,,,listener,j,True,,"[[0,2,1],""draw_triangle"",""draw_square"",""draw_circle"",[""red"",""blue"",""green""],[100,20,60]]",3.0,,pr,,,
728.0,k,,html-keyboard-response,46,107261,0.0-6.0-2.8-1.8,30,1,2024-03-26 13:13:04,8dc0f95afc5e1bb424f9b02304a59b81,WebKit,https://uu.blackboard.com/,,,<p><b>Correct!</b></p>You returned the object that the other participant wanted you to return.</p><p>Press any key to continue</p>,,,,,,,,,,,
4024.0,k,,canvas-keyboard-response,47,111288,0.0-6.0-2.9-0.9,30,1,2024-03-26 13:13:04,8dc0f95afc5e1bb424f9b02304a59b81,WebKit,https://uu.blackboard.com/,,,,listener,k,True,,"[[0,2,1],""draw_triangle"",""draw_square"",""draw_circle"",[""red"",""blue"",""green""],[100,20,60]]",3.0,,,,,
380.0,k,,html-keyboard-response,48,111668,0.0-6.0-2.9-1.9,30,1,2024-03-26 13:13:04,8dc0f95afc5e1bb424f9b02304a59b81,WebKit,https://uu.blackboard.com/,,,<p><b>Correct!</b></p>You returned the object that the other participant wanted you to return.</p><p>Press any key to continue</p>,,,,,,,,,,,
1397.0,l,,canvas-keyboard-response,49,113068,0.0-6.0-2.10-0.10,30,1,2024-03-26 13:13:04,8dc0f95afc5e1bb424f9b02304a59b81,WebKit,https://uu.blackboard.com/,,,,listener,l,True,,"[[0,2,1],""draw_triangle"",""draw_square"",""draw_circle"",[""red"",""blue"",""green""],[100,20,60]]",3.0,,cr,,,
494.0,k,,html-keyboard-response,50,113565,0.0-6.0-2.10-1.10,30,1,2024-03-26 13:13:04,8dc0f95afc5e1bb424f9b02304a59b81,WebKit,https://uu.blackboard.com/,,,<p><b>Correct!</b></p>You returned the object that the other participant wanted you to return.</p><p>Press any key to continue</p>,,,,,,,,,,,
4104.0,j,,canvas-keyboard-response,51,117673,0.0-6.0-2.11-0.11,30,1,2024-03-26 13:13:04,8dc0f95afc5e1bb424f9b02304a59b81,WebKit,https://uu.blackboard.com/,,,,listener,j,True,,"[[0,2,1],""draw_triangle"",""draw_square"",""draw_circle"",[""red"",""blue"",""green""],[100,20,60]]",3.0,,,,,
514.0,j,,html-keyboard-response,52,118188,0.0-6.0-2.11-1.11,30,1,2024-03-26 13:13:04,8dc0f95afc5e1bb424f9b02304a59b81,WebKit,https://uu.blackboard.com/,,,<p><b>Correct!</b></p>You returned the object that the other participant wanted you to return.</p><p>Press any key to continue</p>,,,,,,,,,,,
1336.0,l,,canvas-keyboard-response,53,119528,0.0-6.0-2.12-0.12,30,1,2024-03-26 13:13:04,8dc0f95afc5e1bb424f9b02304a59b81,WebKit,https://uu.blackboard.com/,,,,listener,l,True,,"[[0,2,1],""draw_triangle"",""draw_square"",""draw_circle"",[""red"",""blue"",""green""],[100,20,60]]",3.0,,,,,
436.0,k,,html-keyboard-response,54,119966,0.0-6.0-2.12-1.12,30,1,2024-03-26 13:13:04,8dc0f95afc5e1bb424f9b02304a59b81,WebKit,https://uu.blackboard.com/,,,<p><b>Correct!</b></p>You returned the object that the other participant wanted you to return.</p><p>Press any key to continue</p>,,,,,,,,,,,
998.0,l,,canvas-keyboard-response,55,120968,0.0-6.0-2.13-0.13,30,1,2024-03-26 13:13:04,8dc0f95afc5e1bb424f9b02304a59b81,WebKit,https://uu.blackboard.com/,,,,listener,l,True,,"[[0,2,1],""draw_triangle"",""draw_square"",""draw_circle"",[""red"",""blue"",""green""],[100,20,60]]",3.0,,,,,
405.0,k,,html-keyboard-response,56,121375,0.0-6.0-2.13-1.13,30,1,2024-03-26 13:13:04,8dc0f95afc5e1bb424f9b02304a59b81,WebKit,https://uu.blackboard.com/,,,<p><b>Correct!</b></p>You returned the object that the other participant wanted you to return.</p><p>Press any key to continue</p>,,,,,,,,,,,
1095.0,j,,canvas-keyboard-response,57,122473,0.0-6.0-2.14-0.14,30,1,2024-03-26 13:13:04,8dc0f95afc5e1bb424f9b02304a59b81,WebKit,https://uu.blackboard.com/,,,,listener,j,True,,"[[0,2,1],""draw_triangle"",""draw_square"",""draw_circle"",[""red"",""blue"",""green""],[100,20,60]]",3.0,,,,,
386.0,k,,html-keyboard-response,58,122861,0.0-6.0-2.14-1.14,30,1,2024-03-26 13:13:04,8dc0f95afc5e1bb424f9b02304a59b81,WebKit,https://uu.blackboard.com/,,,<p><b>Correct!</b></p>You returned the object that the other participant wanted you to return.</p><p>Press any key to continue</p>,,,,,,,,,,,
2159.0,k,,canvas-keyboard-response,59,125024,0.0-6.0-2.15-0.15,30,1,2024-03-26 13:13:04,8dc0f95afc5e1bb424f9b02304a59b81,WebKit,https://uu.blackboard.com/,,,,listener,j,False,,"[[0,2,1],""draw_triangle"",""draw_square"",""draw_circle"",[""red"",""blue"",""green""],[100,20,60]]",3.0,,,,,
396.0,k,,html-keyboard-response,60,125422,0.0-6.0-2.15-1.15,30,1,2024-03-26 13:13:04,8dc0f95afc5e1bb424f9b02304a59b81,WebKit,https://uu.blackboard.com/,,,<p><b>Incorrect.</b></p>You can see the right answer underlined in the record on the right part of the screen.</p><p>Press any key to continue</p>,,,,,,,,,,,
1265.0,k,,canvas-keyboard-response,61,126693,0.0-6.0-2.16-0.16,30,1,2024-03-26 13:13:04,8dc0f95afc5e1bb424f9b02304a59b81,WebKit,https://uu.blackboard.com/,,,,listener,k,True,,"[[0,2,1],""draw_triangle"",""draw_square"",""draw_circle"",[""red"",""blue"",""green""],[100,20,60]]",3.0,,phr,,,
389.0,k,,html-keyboard-response,62,127085,0.0-6.0-2.16-1.16,30,1,2024-03-26 13:13:04,8dc0f95afc5e1bb424f9b02304a59b81,WebKit,https://uu.blackboard.com/,,,<p><b>Correct!</b></p>You returned the object that the other participant wanted you to return.</p><p>Press any key to continue</p>,,,,,,,,,,,
1051.0,j,,canvas-keyboard-response,63,128140,0.0-6.0-2.17-0.17,30,1,2024-03-26 13:13:04,8dc0f95afc5e1bb424f9b02304a59b81,WebKit,https://uu.blackboard.com/,,,,listener,j,True,,"[[0,2,1],""draw_triangle"",""draw_square"",""draw_circle"",[""red"",""blue"",""green""],[100,20,60]]",3.0,,cr,,,
840.0,k,,html-keyboard-response,64,128982,0.0-6.0-2.17-1.17,30,1,2024-03-26 13:13:04,8dc0f95afc5e1bb424f9b02304a59b81,WebKit,https://uu.blackboard.com/,,,<p><b>Correct!</b></p>You returned the object that the other participant wanted you to return.</p><p>Press any key to continue</p>,,,,,,,,,,,
1862.0,k,,canvas-keyboard-response,65,130849,0.0-6.0-2.18-0.18,30,1,2024-03-26 13:13:04,8dc0f95afc5e1bb424f9b02304a59b81,WebKit,https://uu.blackboard.com/,,,,listener,k,True,,"[[0,2,1],""draw_triangle"",""draw_square"",""draw_circle"",[""red"",""blue"",""green""],[100,20,60]]",3.0,,,,,
410.0,k,,html-keyboard-response,66,131261,0.0-6.0-2.18-1.18,30,1,2024-03-26 13:13:04,8dc0f95afc5e1bb424f9b02304a59b81,WebKit,https://uu.blackboard.com/,,,<p><b>Correct!</b></p>You returned the object that the other participant wanted you to return.</p><p>Press any key to continue</p>,,,,,,,,,,,
1130.0,k,,canvas-keyboard-response,67,132397,0.0-6.0-2.19-0.19,30,1,2024-03-26 13:13:04,8dc0f95afc5e1bb424f9b02304a59b81,WebKit,https://uu.blackboard.com/,,,,listener,k,True,,"[[0,2,1],""draw_triangle"",""draw_square"",""draw_circle"",[""red"",""blue"",""green""],[100,20,60]]",3.0,,cr,,,
454.0,k,,html-keyboard-response,68,132852,0.0-6.0-2.19-1.19,30,1,2024-03-26 13:13:04,8dc0f95afc5e1bb424f9b02304a59b81,WebKit,https://uu.blackboard.com/,,,<p><b>Correct!</b></p>You returned the object that the other participant wanted you to return.</p><p>Press any key to continue</p>,,,,,,,,,,,
19813.0,k,,canvas-keyboard-response,69,152668,0.0-6.0-2.20-0.20,30,1,2024-03-26 13:13:04,8dc0f95afc5e1bb424f9b02304a59b81,WebKit,https://uu.blackboard.com/,,,,listener,j,False,,"[[0,2,1],""draw_triangle"",""draw_square"",""draw_circle"",[""red"",""blue"",""green""],[100,20,60]]",3.0,,-,,,
792.0,k,,html-keyboard-response,70,153461,0.0-6.0-2.20-1.20,30,1,2024-03-26 13:13:04,8dc0f95afc5e1bb424f9b02304a59b81,WebKit,https://uu.blackboard.com/,,,<p><b>Incorrect.</b></p>You can see the right answer underlined in the record on the right part of the screen.</p><p>Press any key to continue</p>,,,,,,,,,,,
4512.0,l,,canvas-keyboard-response,71,157977,0.0-6.0-2.21-0.21,30,1,2024-03-26 13:13:04,8dc0f95afc5e1bb424f9b02304a59b81,WebKit,https://uu.blackboard.com/,,,,listener,k,False,,"[[0,2,1],""draw_triangle"",""draw_square"",""draw_circle"",[""red"",""blue"",""green""],[100,20,60]]",3.0,,cw,,,
610.0,k,,html-keyboard-response,72,158589,0.0-6.0-2.21-1.21,30,1,2024-03-26 13:13:04,8dc0f95afc5e1bb424f9b02304a59b81,WebKit,https://uu.blackboard.com/,,,<p><b>Incorrect.</b></p>You can see the right answer underlined in the record on the right part of the screen.</p><p>Press any key to continue</p>,,,,,,,,,,,
23801.0, ,,canvas-keyboard-response,73,182397,0.0-6.0-3.0,30,1,2024-03-26 13:13:04,8dc0f95afc5e1bb424f9b02304a59b81,WebKit,https://uu.blackboard.com/,,,,,,,,,,,,,,
39362.0,"{""p_meaning_participants"":""small is the highest priority""}",[],survey,74,221775,0.0-6.0-4.0,30,1,2024-03-26 13:13:04,8dc0f95afc5e1bb424f9b02304a59b81,WebKit,https://uu.blackboard.com/,,,,,,,,,,,,,not_100,
18523.0, ,,canvas-keyboard-response,75,240301,0.0-6.0-5.0,30,1,2024-03-26 13:13:04,8dc0f95afc5e1bb424f9b02304a59b81,WebKit,https://uu.blackboard.com/,,,,,,,,,,,,,,
15485.0,"{""q_meaning_participants"":""triangle is the highest priority""}",[],survey,76,255799,0.0-6.0-6.0,30,1,2024-03-26 13:13:04,8dc0f95afc5e1bb424f9b02304a59b81,WebKit,https://uu.blackboard.com/,,,,,,,,,,,,,,draw_triangle_and_(blue_or_green)
,,,call-function,77,255801,0.0-6.0-0.1,30,1,2024-03-26 13:13:04,8dc0f95afc5e1bb424f9b02304a59b81,WebKit,https://uu.blackboard.com/,,,,,,,,,,,,,,
1946.0,j,,html-keyboard-response,78,257749,0.0-6.0-1.1,30,1,2024-03-26 13:13:04,8dc0f95afc5e1bb424f9b02304a59b81,WebKit,https://uu.blackboard.com/,,,"<h3>Task 3 of 5</h3><p>In the next task, you will learn the meaning of two concepts, which will be associated with <em>p</em> and <em>q</em>. During the experiment, you will be shown sets of three objects. The same sets of three objects were shown to another participant, in the same order in which they will be shown to you. That participant was informed about the meaning of the words associated with <em>p</em> and <em>q</em>, unlike you. That participant sent you a message (either <em>p</em> or <em>q</em>) for each set of objects. Such messages will appear next to each set of objects. The aim of the participant who sent the messages to you is to have you pick a certain object out of the three displayed ones, for each set of objects. Your task is in fact not only to learn the meaning of the two concepts, but also to select the object that the other participant wanted you to return.</p><p>Of course, in the first couple of trials you will have no idea about the meaning of the concepts in question. That should however change later on. As a help, you will see the record of the trials that you already completed on the right part of the screen. This means that you will see all sets of three objects that were shown to you before, with the one that you were supposed to pick underlined, together with the message sent by the other participant. There is no time limit to complete the task, so please focus on being as accurate as possible in returning the object that the other participant wanted you to return, and look at the right part of the screen for help in solving the task.</p><p> We suggest to keep three fingers on the <em>j</em>, <em>k</em> and <em>l</em> keys, which are the keys that you will need to use to indicate which object you select.</p>",,,,,,,,,,,
4280.0,k,,canvas-keyboard-response,79,262033,0.0-6.0-2.22-0.22,30,1,2024-03-26 13:13:04,8dc0f95afc5e1bb424f9b02304a59b81,WebKit,https://uu.blackboard.com/,,,,listener,j,False,,"[[0,2,1],""draw_circle"",""draw_square"",""draw_triangle"",[""blue"",""red"",""green""],[60,100,20]]",2.0,,,,,
689.0,k,,html-keyboard-response,80,262724,0.0-6.0-2.22-1.22,30,1,2024-03-26 13:13:04,8dc0f95afc5e1bb424f9b02304a59b81,WebKit,https://uu.blackboard.com/,,,<p><b>Incorrect.</b></p>You can see the right answer underlined in the record on the right part of the screen.</p><p>Press any key to continue</p>,,,,,,,,,,,
2171.0,l,,canvas-keyboard-response,81,264897,0.0-6.0-2.23-0.23,30,1,2024-03-26 13:13:04,8dc0f95afc5e1bb424f9b02304a59b81,WebKit,https://uu.blackboard.com/,,,,listener,l,True,,"[[0,2,1],""draw_circle"",""draw_square"",""draw_triangle"",[""blue"",""red"",""green""],[60,100,20]]",2.0,,cr,,,
525.0,k,,html-keyboard-response,82,265424,0.0-6.0-2.23-1.23,30,1,2024-03-26 13:13:04,8dc0f95afc5e1bb424f9b02304a59b81,WebKit,https://uu.blackboard.com/,,,<p><b>Correct!</b></p>You returned the object that the other participant wanted you to return.</p><p>Press any key to continue</p>,,,,,,,,,,,
941.0,k,,canvas-keyboard-response,83,266369,0.0-6.0-2.24-0.24,30,1,2024-03-26 13:13:04,8dc0f95afc5e1bb424f9b02304a59b81,WebKit,https://uu.blackboard.com/,,,,listener,j,False,,"[[0,2,1],""draw_circle"",""draw_square"",""draw_triangle"",[""blue"",""red"",""green""],[60,100,20]]",2.0,,,,,
499.0,k,,html-keyboard-response,84,266873,0.0-6.0-2.24-1.24,30,1,2024-03-26 13:13:04,8dc0f95afc5e1bb424f9b02304a59b81,WebKit,https://uu.blackboard.com/,,,<p><b>Incorrect.</b></p>You can see the right answer underlined in the record on the right part of the screen.</p><p>Press any key to continue</p>,,,,,,,,,,,
1224.0,l,,canvas-keyboard-response,85,268100,0.0-6.0-2.25-0.25,30,1,2024-03-26 13:13:04,8dc0f95afc5e1bb424f9b02304a59b81,WebKit,https://uu.blackboard.com/,,,,listener,l,True,,"[[0,2,1],""draw_circle"",""draw_square"",""draw_triangle"",[""blue"",""red"",""green""],[60,100,20]]",2.0,,,,,
461.0,k,,html-keyboard-response,86,268565,0.0-6.0-2.25-1.25,30,1,2024-03-26 13:13:04,8dc0f95afc5e1bb424f9b02304a59b81,WebKit,https://uu.blackboard.com/,,,<p><b>Correct!</b></p>You returned the object that the other participant wanted you to return.</p><p>Press any key to continue</p>,,,,,,,,,,,
1864.0,l,,canvas-keyboard-response,87,270432,0.0-6.0-2.26-0.26,30,1,2024-03-26 13:13:04,8dc0f95afc5e1bb424f9b02304a59b81,WebKit,https://uu.blackboard.com/,,,,listener,l,True,,"[[0,2,1],""draw_circle"",""draw_square"",""draw_triangle"",[""blue"",""red"",""green""],[60,100,20]]",2.0,,cr,,,
562.0,k,,html-keyboard-response,88,270997,0.0-6.0-2.26-1.26,30,1,2024-03-26 13:13:04,8dc0f95afc5e1bb424f9b02304a59b81,WebKit,https://uu.blackboard.com/,,,<p><b>Correct!</b></p>You returned the object that the other participant wanted you to return.</p><p>Press any key to continue</p>,,,,,,,,,,,
2809.0,l,,canvas-keyboard-response,89,273809,0.0-6.0-2.27-0.27,30,1,2024-03-26 13:13:04,8dc0f95afc5e1bb424f9b02304a59b81,WebKit,https://uu.blackboard.com/,,,,listener,l,True,,"[[0,2,1],""draw_circle"",""draw_square"",""draw_triangle"",[""blue"",""red"",""green""],[60,100,20]]",2.0,,pr,,,
517.0,k,,html-keyboard-response,90,274329,0.0-6.0-2.27-1.27,30,1,2024-03-26 13:13:04,8dc0f95afc5e1bb424f9b02304a59b81,WebKit,https://uu.blackboard.com/,,,<p><b>Correct!</b></p>You returned the object that the other participant wanted you to return.</p><p>Press any key to continue</p>,,,,,,,,,,,
2259.0,k,,canvas-keyboard-response,91,276592,0.0-6.0-2.28-0.28,30,1,2024-03-26 13:13:04,8dc0f95afc5e1bb424f9b02304a59b81,WebKit,https://uu.blackboard.com/,,,,listener,k,True,,"[[0,2,1],""draw_circle"",""draw_square"",""draw_triangle"",[""blue"",""red"",""green""],[60,100,20]]",2.0,,,,,
350.0,k,,html-keyboard-response,92,276945,0.0-6.0-2.28-1.28,30,1,2024-03-26 13:13:04,8dc0f95afc5e1bb424f9b02304a59b81,WebKit,https://uu.blackboard.com/,,,<p><b>Correct!</b></p>You returned the object that the other participant wanted you to return.</p><p>Press any key to continue</p>,,,,,,,,,,,
3743.0,l,,canvas-keyboard-response,93,280692,0.0-6.0-2.29-0.29,30,1,2024-03-26 13:13:04,8dc0f95afc5e1bb424f9b02304a59b81,WebKit,https://uu.blackboard.com/,,,,listener,l,True,,"[[0,2,1],""draw_circle"",""draw_square"",""draw_triangle"",[""blue"",""red"",""green""],[60,100,20]]",2.0,,,,,
543.0,k,,html-keyboard-response,94,281238,0.0-6.0-2.29-1.29,30,1,2024-03-26 13:13:04,8dc0f95afc5e1bb424f9b02304a59b81,WebKit,https://uu.blackboard.com/,,,<p><b>Correct!</b></p>You returned the object that the other participant wanted you to return.</p><p>Press any key to continue</p>,,,,,,,,,,,
2106.0,j,,canvas-keyboard-response,95,283349,0.0-6.0-2.30-0.30,30,1,2024-03-26 13:13:04,8dc0f95afc5e1bb424f9b02304a59b81,WebKit,https://uu.blackboard.com/,,,,listener,j,True,,"[[0,2,1],""draw_circle"",""draw_square"",""draw_triangle"",[""blue"",""red"",""green""],[60,100,20]]",2.0,,,,,
505.0,k,,html-keyboard-response,96,283857,0.0-6.0-2.30-1.30,30,1,2024-03-26 13:13:04,8dc0f95afc5e1bb424f9b02304a59b81,WebKit,https://uu.blackboard.com/,,,<p><b>Correct!</b></p>You returned the object that the other participant wanted you to return.</p><p>Press any key to continue</p>,,,,,,,,,,,
838.0,k,,canvas-keyboard-response,97,284700,0.0-6.0-2.31-0.31,30,1,2024-03-26 13:13:04,8dc0f95afc5e1bb424f9b02304a59b81,WebKit,https://uu.blackboard.com/,,,,listener,k,True,,"[[0,2,1],""draw_circle"",""draw_square"",""draw_triangle"",[""blue"",""red"",""green""],[60,100,20]]",2.0,,cr,,,
282.0,k,,html-keyboard-response,98,284985,0.0-6.0-2.31-1.31,30,1,2024-03-26 13:13:04,8dc0f95afc5e1bb424f9b02304a59b81,WebKit,https://uu.blackboard.com/,,,<p><b>Correct!</b></p>You returned the object that the other participant wanted you to return.</p><p>Press any key to continue</p>,,,,,,,,,,,
2038.0,l,,canvas-keyboard-response,99,287029,0.0-6.0-2.32-0.32,30,1,2024-03-26 13:13:04,8dc0f95afc5e1bb424f9b02304a59b81,WebKit,https://uu.blackboard.com/,,,,listener,k,False,,"[[0,2,1],""draw_circle"",""draw_square"",""draw_triangle"",[""blue"",""red"",""green""],[60,100,20]]",2.0,,-,,,
390.0,k,,html-keyboard-response,100,287422,0.0-6.0-2.32-1.32,30,1,2024-03-26 13:13:04,8dc0f95afc5e1bb424f9b02304a59b81,WebKit,https://uu.blackboard.com/,,,<p><b>Incorrect.</b></p>You can see the right answer underlined in the record on the right part of the screen.</p><p>Press any key to continue</p>,,,,,,,,,,,
3034.0,j,,canvas-keyboard-response,101,290460,0.0-6.0-2.33-0.33,30,1,2024-03-26 13:13:04,8dc0f95afc5e1bb424f9b02304a59b81,WebKit,https://uu.blackboard.com/,,,,listener,j,True,,"[[0,2,1],""draw_circle"",""draw_square"",""draw_triangle"",[""blue"",""red"",""green""],[60,100,20]]",2.0,,,,,
479.0,k,,html-keyboard-response,102,290940,0.0-6.0-2.33-1.33,30,1,2024-03-26 13:13:04,8dc0f95afc5e1bb424f9b02304a59b81,WebKit,https://uu.blackboard.com/,,,<p><b>Correct!</b></p>You returned the object that the other participant wanted you to return.</p><p>Press any key to continue</p>,,,,,,,,,,,
9748.0,j,,canvas-keyboard-response,103,300690,0.0-6.0-2.34-0.34,30,1,2024-03-26 13:13:04,8dc0f95afc5e1bb424f9b02304a59b81,WebKit,https://uu.blackboard.com/,,,,listener,j,True,,"[[0,2,1],""draw_circle"",""draw_square"",""draw_triangle"",[""blue"",""red"",""green""],[60,100,20]]",2.0,,,,,
460.0,k,,html-keyboard-response,104,301153,0.0-6.0-2.34-1.34,30,1,2024-03-26 13:13:04,8dc0f95afc5e1bb424f9b02304a59b81,WebKit,https://uu.blackboard.com/,,,<p><b>Correct!</b></p>You returned the object that the other participant wanted you to return.</p><p>Press any key to continue</p>,,,,,,,,,,,
1063.0,k,,canvas-keyboard-response,105,302220,0.0-6.0-2.35-0.35,30,1,2024-03-26 13:13:04,8dc0f95afc5e1bb424f9b02304a59b81,WebKit,https://uu.blackboard.com/,,,,listener,k,True,,"[[0,2,1],""draw_circle"",""draw_square"",""draw_triangle"",[""blue"",""red"",""green""],[60,100,20]]",2.0,,cr,,,
336.0,k,,html-keyboard-response,106,302560,0.0-6.0-2.35-1.35,30,1,2024-03-26 13:13:04,8dc0f95afc5e1bb424f9b02304a59b81,WebKit,https://uu.blackboard.com/,,,<p><b>Correct!</b></p>You returned the object that the other participant wanted you to return.</p><p>Press any key to continue</p>,,,,,,,,,,,
5771.0,l,,canvas-keyboard-response,107,308333,0.0-6.0-2.36-0.36,30,1,2024-03-26 13:13:04,8dc0f95afc5e1bb424f9b02304a59b81,WebKit,https://uu.blackboard.com/,,,,listener,k,False,,"[[0,2,1],""draw_circle"",""draw_square"",""draw_triangle"",[""blue"",""red"",""green""],[60,100,20]]",2.0,,-,,,
337.0,k,,html-keyboard-response,108,308674,0.0-6.0-2.36-1.36,30,1,2024-03-26 13:13:04,8dc0f95afc5e1bb424f9b02304a59b81,WebKit,https://uu.blackboard.com/,,,<p><b>Incorrect.</b></p>You can see the right answer underlined in the record on the right part of the screen.</p><p>Press any key to continue</p>,,,,,,,,,,,
937.0,l,,canvas-keyboard-response,109,309616,0.0-6.0-2.37-0.37,30,1,2024-03-26 13:13:04,8dc0f95afc5e1bb424f9b02304a59b81,WebKit,https://uu.blackboard.com/,,,,listener,l,True,,"[[0,2,1],""draw_circle"",""draw_square"",""draw_triangle"",[""blue"",""red"",""green""],[60,100,20]]",2.0,,cr,,,
466.0,k,,html-keyboard-response,110,310083,0.0-6.0-2.37-1.37,30,1,2024-03-26 13:13:04,8dc0f95afc5e1bb424f9b02304a59b81,WebKit,https://uu.blackboard.com/,,,<p><b>Correct!</b></p>You returned the object that the other participant wanted you to return.</p><p>Press any key to continue</p>,,,,,,,,,,,
2474.0,l,,canvas-keyboard-response,111,312563,0.0-6.0-2.38-0.38,30,1,2024-03-26 13:13:04,8dc0f95afc5e1bb424f9b02304a59b81,WebKit,https://uu.blackboard.com/,,,,listener,j,False,,"[[0,2,1],""draw_circle"",""draw_square"",""draw_triangle"",[""blue"",""red"",""green""],[60,100,20]]",2.0,,,,,
570.0,k,,html-keyboard-response,112,313136,0.0-6.0-2.38-1.38,30,1,2024-03-26 13:13:04,8dc0f95afc5e1bb424f9b02304a59b81,WebKit,https://uu.blackboard.com/,,,<p><b>Incorrect.</b></p>You can see the right answer underlined in the record on the right part of the screen.</p><p>Press any key to continue</p>,,,,,,,,,,,
2394.0,k,,canvas-keyboard-response,113,315533,0.0-6.0-2.39-0.39,30,1,2024-03-26 13:13:04,8dc0f95afc5e1bb424f9b02304a59b81,WebKit,https://uu.blackboard.com/,,,,listener,k,True,,"[[0,2,1],""draw_circle"",""draw_square"",""draw_triangle"",[""blue"",""red"",""green""],[60,100,20]]",2.0,,,,,
